#Wave		#Intensity
3200.600830	8.419704
3200.007080	0.000000
3199.413086	0.000000
3198.819092	16.834320
3198.224854	4.207944
3197.630615	16.829231
3197.036377	25.240030
3196.442139	-21.030178
3195.847656	21.027000
3195.252930	0.000000
3194.658447	8.408257
3194.063721	8.406985
3193.468750	12.608572
3192.873779	16.808887
3192.278809	0.000000
3191.683838	12.602853
3191.088623	29.402208
3190.493164	25.198082
3189.897949	4.199045
3189.302490	12.595230
3188.706787	16.791100
3188.111328	25.182840
3187.515381	20.982525
3186.919678	12.587610
3186.323730	41.952354
3185.727783	16.778402
3185.131592	12.581898
3184.535400	12.579994
3183.939209	16.770788
3183.342773	-4.192062
3182.746338	4.191428
3182.149902	16.763174
3181.553223	-4.190159
3180.956543	0.000000
3180.359619	25.133347
3179.762695	8.376514
3179.165771	25.125738
3178.568604	12.560967
3177.971436	0.000000
3177.374268	16.742886
3176.776855	4.185088
3176.179443	25.106726
3175.581787	-8.367641
3174.984131	16.732748
3174.386475	8.365108
3173.788574	20.909601
3173.190674	20.906435
3172.592773	12.541961
3171.994629	12.540061
3171.396484	-12.538162
3170.798340	4.178754
3170.199951	12.534364
3169.601563	12.532465
3169.002930	8.353711
3168.404297	-16.704891
3167.805664	0.000000
3167.206787	12.524872
3166.607910	0.000000
3166.008789	29.215845
3165.409912	4.173059
3164.810547	4.172427
3164.211426	-12.515385
3163.612061	25.026976
3163.012695	8.341061
3162.413086	20.849491
3161.813477	4.169266
3161.213623	4.168634
3160.614014	-4.168002
3160.013916	16.669481
3159.414063	0.000000
3158.813965	4.166107
3158.213867	4.165475
3157.613525	16.659374
3157.013184	4.164212
3156.412598	4.163580
3155.812256	20.814745
3155.211426	8.324636
3154.610840	16.646746
3154.010010	12.483166
3153.409180	4.160424
3152.808105	12.479379
3152.207031	8.318324
3151.605957	4.158531
3151.004639	4.157900
3150.403320	0.000000
3149.801758	0.000000
3149.200195	8.312016
3148.598633	12.466131
3147.996826	16.618986
3147.395020	-8.308232
3146.793213	37.381371
3146.191162	-4.152855
3145.589111	29.065575
3144.986816	12.454784
3144.384766	8.301929
3143.782227	0.000000
3143.179932	12.449114
3142.577393	16.596298
3141.974609	8.296889
3141.371826	12.443444
3140.769043	12.441555
3140.166260	12.439666
3139.563232	4.145926
3138.960205	4.145296
3138.356934	4.144667
3137.753662	12.432112
3137.150391	0.000000
3136.546875	8.285557
3135.943359	8.284299
3135.339600	-12.424561
3134.735840	12.422673
3134.132080	28.981833
3133.528076	12.418899
3132.924072	12.417012
3132.320068	0.000000
3131.715820	-8.275493
3131.111572	12.411353
3130.507080	0.000000
3129.902588	20.679302
3129.298096	28.946623
3128.693604	4.134604
3128.088867	12.401925
3127.483887	16.533386
3126.878906	12.398155
3126.273926	8.264180
3125.668945	33.051697
3125.063721	4.130834
3124.458252	16.520824
3123.853027	8.259156
3123.247559	20.644751
3122.641846	20.641613
3122.036133	37.149254
3121.430420	0.000000
3120.824707	53.643711
3120.218750	20.629059
3119.612549	4.125185
3119.006592	20.622786
3118.400391	8.247859
3117.793945	-4.123302
3117.187500	12.368026
3116.581055	12.366144
3115.974609	12.364263
3115.367920	8.241588
3114.760986	0.000000
3114.154297	8.239080
3113.547363	16.475653
3112.940186	0.000000
3112.333008	4.117660
3111.725830	4.117033
3111.118408	20.582033
3110.510986	24.694681
3109.903564	16.460615
3109.295898	16.458109
3108.688232	20.569506
3108.080566	16.453100
3107.472656	24.675892
3106.864746	8.224045
3106.256592	8.222793
3105.648438	-16.443083
3105.040039	4.110145
3104.431885	8.219038
3103.823486	-8.217786
3103.214844	20.541336
3102.606201	24.645849
3101.997559	24.642096
3101.388672	0.000000
3100.779785	16.423061
3100.170898	8.210279
3099.561768	0.000000
3098.952637	0.000000
3098.343262	12.309792
3097.733887	12.307917
3097.124512	-12.306042
3096.514893	4.101389
3095.905273	20.503819
3095.295410	24.600834
3094.685791	8.199028
3094.075684	0.000000
3093.465820	12.294794
3092.855713	8.195280
3092.245361	24.582094
3091.635254	12.289173
3091.024658	8.191534
3090.414307	20.475712
3089.803711	16.378073
3089.193115	8.187788
3088.582275	0.000000
3087.971436	8.185291
3087.360596	12.276065
3086.749512	-8.182796
3086.138428	20.453869
3085.527100	20.450750
3084.915771	4.089526
3084.304443	4.088902
3083.692871	8.176558
3083.081299	24.525932
3082.469482	16.348127
3081.857910	24.518452
3081.245850	16.343140
3080.634033	8.170323
3080.021973	8.169077
3079.409668	28.587408
3078.797607	32.666340
3078.185059	0.000000
3077.572754	20.410231
3076.960205	20.407116
3076.347656	8.161601
3075.734863	12.240533
3075.122070	8.159110
3074.509033	12.236797
3073.895996	8.156620
3073.282959	4.077687
3072.669922	24.462389
3072.056641	16.305769
3071.443115	24.454920
3070.829834	24.451187
3070.216064	20.372879
3069.602539	4.073954
3068.988770	16.293325
3068.375000	16.290838
3067.760986	8.144175
3067.146973	0.000000
3066.532715	8.141687
3065.918701	12.210666
3065.304199	12.208801
3064.689941	12.206936
3064.075439	12.205071
3063.460693	16.270943
3062.846191	12.201343
3062.231445	32.531944
3061.616455	24.395229
3061.001465	8.130501
3060.386475	-8.129258
3059.771240	32.512066
3059.156006	36.570484
3058.540771	16.251064
3057.925293	8.124290
3057.309814	12.184573
3056.694092	32.487228
3056.078369	20.301414
3055.462646	0.000000
3054.846680	0.000000
3054.230713	24.350527
3053.614502	16.231203
3052.998291	28.400263
3052.382080	12.169680
3051.765625	28.391579
3051.149170	-4.055320
3050.532715	24.328197
3049.916016	8.108159
3049.299316	4.053459
3048.682373	-4.052839
3048.065430	28.365538
3047.448486	8.103200
3046.831299	-8.101960
3046.214111	4.050360
3045.596680	24.298445
3044.979248	8.098243
3044.361816	-12.145505
3043.744141	16.191528
3043.126465	24.283577
3042.508545	16.186575
3041.890869	16.184097
3041.272705	4.045405
3040.654785	28.313503
3040.036621	12.132502
3039.418213	24.261290
3038.799805	12.128788
3038.181396	-4.042310
3037.562988	-16.166767
3036.944336	36.369656
3036.325439	12.121363
3035.706543	0.000000
3035.087646	20.196087
3034.468750	32.308792
3033.849609	24.227882
3033.230469	12.112086
3032.611084	28.257206
3031.991699	28.252880
3031.372070	16.142031
3030.752441	12.104669
3030.132813	40.342716
3029.513184	24.201921
3028.893066	16.132143
3028.273193	12.097254
3027.653076	4.031800
3027.032959	24.187094
3026.412598	24.183390
3025.792480	4.029947
3025.171875	12.087989
3024.551270	24.172274
3023.930664	16.112379
3023.310059	12.082433
3022.689209	4.026860
3022.068115	12.078730
3021.447266	12.076879
3020.826172	12.075027
3020.204834	40.243923
3019.583496	16.095100
3018.962158	44.254742
3018.340576	32.180332
3017.718994	0.000000
3017.097412	8.042617
3016.475586	20.103458
3015.853760	8.040151
3015.231689	20.097294
3014.609619	16.075369
3013.987549	20.091129
3013.365234	16.070438
3012.742920	36.152943
3012.120361	16.065510
3011.497803	12.047284
3010.875244	16.060581
3010.252441	12.043589
3009.629639	44.153049
3009.006836	12.039893
3008.383789	24.076092
3007.760498	28.084463
3007.137451	16.045803
3006.514160	8.021670
3005.890625	20.051098
3005.267090	28.067228
3004.643555	20.044945
3004.019775	44.092110
3003.395996	48.093098
3002.772217	40.071430
3002.148193	44.071808
3001.524170	16.023651
3000.899902	44.058277
3000.275635	40.046829
2999.651367	12.012204
2999.026855	48.041439
2998.402344	20.014193
2997.777588	20.011120
2997.152832	20.008047
2996.528076	20.004974
2995.903076	32.003044
2995.278076	11.999298
2994.653076	7.998303
2994.027832	23.991224
2993.402344	39.979233
2992.777100	27.981163
2992.151367	31.973558
2991.525879	39.960808
2990.900146	27.968267
2990.274414	59.922794
2989.648438	55.919350
2989.022461	63.898006
2988.396240	31.944094
2987.770264	47.908775
2987.143799	39.917847
2986.517578	51.885223
2985.891113	51.877247
2985.264404	39.899441
2984.637695	59.839962
2984.010986	71.796913
2983.384033	47.857254
2982.757080	47.849895
2982.130127	71.763809
2981.502930	51.821445
2980.875732	87.684349
2980.248291	67.745667
2979.620850	43.828693
2978.993408	63.741020
2978.365723	39.832012
2977.738037	55.756241
2977.110107	91.585449
2976.482178	55.739090
2975.854248	55.730515
2975.226074	83.582909
2974.597900	119.385788
2973.969482	127.325249
2973.341309	99.457550
2972.712646	91.486870
2972.083984	107.381104
2971.455322	135.199844
2970.826660	99.396347
2970.197754	123.232506
2969.568604	158.985214
2968.939697	166.908783
2968.310547	166.883087
2967.681152	154.939011
2967.051758	194.637009
2966.422363	178.720749
2965.792725	194.577087
2965.163086	166.754684
2964.533203	198.486908
2963.903564	222.271118
2963.273438	234.142441
2962.643311	226.170578
2962.013184	265.808685
2961.383057	226.100922
2960.752686	226.066101
2960.122314	337.064178
2959.491699	273.574677
2958.861084	305.246460
2958.230225	332.944824
2957.599609	309.115417
2956.968506	316.992615
2956.337646	301.096588
2955.706299	281.244263
2955.075195	328.727875
2954.443848	320.757263
2953.812500	308.829773
2953.180908	296.905945
2952.549316	360.190369
2951.917725	352.219818
2951.285889	364.036285
2950.653809	324.417114
2950.021973	403.481018
2949.389893	395.508667
2948.757568	359.857391
2948.125244	363.755798
2947.492920	383.466003
2946.860352	351.785675
2946.227783	343.827362
2945.595215	312.162903
2944.962402	268.655762
2944.329590	268.614319
2943.696533	233.026489
2943.063477	244.837540
2942.430420	217.161087
2941.797119	177.649841
2941.163574	236.829926
2940.530273	264.419281
2939.896729	220.973083
2939.262939	213.048309
2938.629150	197.236511
2937.995361	197.206085
2937.361328	161.684036
2936.727295	205.031052
2936.093262	220.768585
2935.458984	236.501282
2934.824707	204.936142
2934.190186	236.428284
2933.555664	236.391800
2932.921143	259.990845
2932.286377	311.153107
2931.651367	263.848633
2931.016602	283.495056
2930.381592	346.440460
2929.746338	299.152374
2929.111084	358.140320
2928.475830	322.670013
2927.840332	377.701691
2927.204834	322.570374
2926.569336	436.582703
2925.933594	408.987274
2925.297607	432.515900
2924.661865	420.655029
2924.025879	393.074829
2923.389648	518.778625
2922.753418	424.389679
2922.117188	451.826599
2921.480713	522.466553
2920.844238	502.747253
2920.207764	490.888275
2919.571045	467.253418
2918.934082	526.069641
2918.297363	416.080322
2917.660156	521.982361
2917.023193	514.053528
2916.385986	466.892517
2915.748779	439.360321
2915.111328	407.914398
2914.473877	462.754395
2913.836182	431.314545
2913.198486	454.770477
2912.560791	435.101013
2911.922852	466.387543
2911.284912	434.966492
2910.646729	474.079346
2910.008545	493.593048
2909.370361	466.099121
2908.731934	536.518555
2908.093506	579.507019
2907.455078	555.927490
2906.816406	563.670288
2906.177490	637.944763
2905.538574	661.325073
2904.899658	680.785583
2904.260498	751.095459
2903.621338	707.954407
2902.982178	676.558899
2902.342773	782.028015
2901.703369	746.721191
2901.063721	785.694946
2900.424072	707.406860
2899.784424	699.481934
2899.144531	742.351990
2898.504639	679.732910
2897.864502	695.251343
2897.224365	659.995972
2896.583984	613.037476
2895.943848	632.463013
2895.303223	636.268616
2894.662842	640.072998
2894.021973	643.876160
2893.381348	612.563049
2892.740479	631.973572
2892.099609	639.676636
2891.458496	616.178406
2890.817383	686.269653
2890.176025	701.757996
2889.534668	764.018127
2888.893311	736.617676
2888.251709	771.575134
2887.610107	767.559387
2886.968262	814.188110
2886.326416	794.586853
2885.684570	880.141174
2885.042480	876.111023
2884.400391	825.363342
2883.758057	914.765686
2883.115723	949.652100
2882.473389	992.310486
2881.830811	1007.719971
2881.188232	988.112732
2880.545410	952.953125
2879.902588	886.692444
2879.259766	975.988159
2878.616699	929.183289
2877.973633	929.039246
2877.330322	925.008667
2876.687012	812.171570
2876.043457	765.421021
2875.399902	796.380615
2874.756348	776.836182
2874.112549	749.530701
2873.468750	757.180420
2872.824707	698.827393
2872.180664	698.718994
2871.536621	652.036560
2870.892334	655.815979
2870.248047	647.954346
2869.603760	628.457031
2868.958984	667.147156
2868.314453	701.947083
2867.669678	694.083069
2867.024902	740.498840
2866.379883	736.507568
2865.734863	713.138794
2865.089844	775.030579
2864.444580	805.906677
2863.799316	716.680786
2863.153809	751.429688
2862.508301	697.094604
2861.862549	704.730652
2861.216797	576.860291
2860.571045	584.512634
2859.925049	483.792938
2859.279053	445.020386
2858.632813	448.820435
2857.986572	352.037231
2857.340332	336.510803
2856.693848	266.846436
2856.047363	328.672821
2855.400635	313.157227
2854.753906	243.528900
2854.107178	228.031326
2853.460205	227.995911
2852.813232	270.461609
2852.166016	185.430573
2851.518799	227.889679
2850.871338	216.268463
2850.223877	231.680206
2849.576416	204.619049
2848.928711	243.188629
2848.281006	239.291306
2847.633301	227.677307
2846.985352	266.225311
2846.337158	297.045837
2845.688965	293.142517
2845.040771	331.662354
2844.392578	331.610809
2843.743896	373.967987
2843.095459	389.328827
2842.446777	385.414154
2841.798096	420.036133
2841.149170	435.382599
2840.500244	466.133636
2839.851074	500.726868
2839.202148	512.202454
2838.552734	592.984314
2837.903320	558.242554
2837.253906	569.703796
2836.604492	646.590210
2835.954834	596.463623
2835.304932	557.895325
2834.655029	507.798096
2834.005127	507.719116
2833.354980	499.948608
2832.704834	407.586975
2832.054688	376.767059
2831.404297	376.708435
2830.753906	311.312622
2830.103271	303.578644
2829.452637	242.056671
2828.801758	199.761719
2828.150879	230.458420
2827.500000	153.615036
2826.848877	153.591125
2826.197754	126.692955
2825.546387	134.350388
2824.895020	138.167465
2824.243408	130.471176
2823.591797	157.308395
2822.940186	126.594360
2822.288330	88.218697
2821.636475	92.039955
2820.984619	88.191223
2820.332520	95.845093
2819.680176	68.997719
2819.028076	91.982635
2818.375488	88.136292
2817.723145	72.796898
2817.070557	68.954742
2816.417725	61.283554
2815.764893	76.592514
2815.112061	80.409607
2814.458984	53.598053
2813.805908	65.073212
2813.152832	61.235828
2812.499512	53.573002
2811.845947	72.694885
2811.192383	53.556305
2810.538818	61.197666
2809.885010	49.715351
2809.231201	61.178589
2808.577393	61.169052
2807.923340	61.159519
2807.269287	53.506233
2806.614990	84.068115
2805.960693	64.951599
2805.306152	34.380779
2804.651611	34.375420
2803.997070	57.283428
2803.342285	53.456196
2802.687500	41.994747
2802.032471	45.805305
2801.377441	30.532108
2800.722412	68.686531
2800.067139	30.522585
2799.411621	45.776733
2798.756348	30.513062
2798.100586	49.575993
2797.445068	34.316486
2796.789307	45.748173
2796.133301	34.305779
2795.477539	45.733898
2794.821289	49.537327
2794.165283	19.049845
2793.509033	45.712490
2792.852539	19.043898
2792.196045	34.273666
2791.539551	30.460726
2790.882813	38.069965
2790.226074	68.515236
2789.569092	26.640656
2788.912109	30.441710
2788.255127	38.046196
2787.597900	30.432205
2786.940430	53.248043
2786.283203	22.817026
2785.625488	30.417950
2784.968018	53.223099
2784.310303	53.214787
2783.652588	49.406013
2782.994629	41.798557
2782.336426	34.193478
2781.678467	18.993410
2781.020264	49.375149
2780.361816	45.569942
2779.703369	41.765919
2779.044922	37.963085
2778.386230	45.548584
2777.727539	37.951221
2777.068604	22.767176
2776.409668	45.527233
2775.750732	45.520119
2775.091553	22.756502
2774.432373	56.882362
2773.772949	37.915646
2773.113525	34.118748
2772.453857	45.484554
2771.794189	26.528507
2771.134521	15.156777
2770.474609	30.308815
2769.814697	45.456116
2769.154541	49.236423
2768.494385	30.294600
2767.833984	37.862328
2767.173584	49.213326
2766.513184	15.140194
2765.852539	49.197933
2765.191895	45.406376
2764.531006	45.399273
2763.870117	7.565361
2763.209229	41.602978
2762.548096	64.285454
2761.886719	30.247246
2761.225586	37.803143
2760.563965	34.017502
2759.902588	60.466099
2759.240967	45.342476
2758.579102	49.113327
2757.917236	49.105640
2757.255371	64.205017
2756.593262	37.761745
2755.931152	41.531418
2755.269043	45.299911
2754.606689	56.616024
2753.944092	30.190485
2753.281494	79.237617
2752.618896	56.589436
2751.956055	41.492420
2751.293213	52.800266
2750.630371	71.646286
2749.967285	75.405327
2749.303955	30.157408
2748.640625	60.305370
2747.977295	67.832916
2747.313721	60.286480
2746.650146	45.207775
2745.986572	60.267593
2745.322754	67.790421
2744.658691	56.483166
2743.994873	64.004227
2743.330566	82.816017
2742.666504	86.566818
2742.002197	71.500511
2741.337646	75.251900
2740.673096	63.954090
2740.008545	71.466896
2739.343750	82.738174
2738.678955	90.245682
2738.013916	78.952591
2737.348877	78.940216
2736.683594	82.686310
2736.018311	52.610310
2735.353027	63.873932
2734.687500	93.917526
2734.021973	82.634460
2733.356201	75.110458
2732.690430	75.098679
2732.024658	90.104279
2731.358643	86.336395
2730.692383	108.841858
2730.026367	90.061890
2729.359863	105.055725
2728.693604	101.287842
2728.027100	93.770325
2727.360352	97.505836
2726.693604	127.487625
2726.026855	127.467628
2725.359863	119.950706
2724.692871	119.931885
2724.025635	112.418495
2723.358398	153.614502
2722.691162	138.605957
2722.023682	161.057312
2721.355957	161.032043
2720.688477	183.472824
2720.020508	157.237732
2719.352783	190.901550
2718.684814	175.901260
2718.016602	149.679703
2717.348389	123.466362
2716.680176	112.224525
2716.011719	115.947136
2715.343262	108.449638
2714.674561	108.432610
2714.005859	149.538727
2713.337158	104.660667
2712.668213	104.644226
2711.999023	97.154381
2711.329834	104.611359
2710.660645	104.594925
2709.991455	89.638702
2709.321777	108.296417
2708.652344	119.480721
2707.982666	85.863274
2707.312988	93.314980
2706.643066	93.300316
2705.972900	67.165672
2705.302979	89.540154
2704.632813	82.065575
2703.962402	96.971336
2703.291992	93.227020
2702.621582	89.483864
2701.950928	85.741890
2701.280273	52.182510
2700.609375	63.354515
2699.938477	81.975304
2699.267334	40.981209
2698.596191	44.699741
2697.925049	85.661034
2697.253662	78.199951
2696.582031	52.125099
2695.910645	70.730080
2695.239014	55.830753
2694.567139	66.986366
2693.895264	55.813190
2693.223145	44.643528
2692.551270	48.356213
2691.878906	55.786854
2691.206543	66.933693
2690.534180	44.615440
2689.861816	70.629997
2689.189209	55.751747
2688.516357	63.175369
2687.843506	44.587360
2687.170654	48.295372
2686.497559	44.573326
2685.824463	70.563324
2685.151123	77.978767
2684.477783	59.403042
2683.804199	55.681583
2683.130615	59.384338
2682.457031	51.953114
2681.783203	33.393173
2681.109375	44.517216
2680.435303	44.510208
2679.761230	51.920399
2679.086914	51.912220
2678.412598	70.441200
2677.738281	66.723259
2677.063721	63.006485
2676.389160	70.407921
2675.714355	62.986637
2675.039551	74.090248
2674.364502	44.447147
2673.689453	66.660217
2673.014404	40.730381
2672.339111	62.937031
2671.663574	37.015949
2670.988037	44.412140
2670.312500	59.206852
2669.636719	55.497677
2668.960938	44.391144
2668.285156	51.781502
2667.609131	44.377148
2666.932861	18.487564
2666.256592	66.544739
2665.580322	55.445206
2664.903809	33.261879
2664.227295	51.732540
2663.550781	66.502777
2662.874023	59.104259
2662.197021	51.708069
2661.520020	62.778469
2660.843018	73.845375
2660.165771	36.916862
2659.488525	55.366558
2658.811035	36.905216
2658.133545	44.279274
2657.455811	62.719074
2656.778076	44.265305
2656.100342	55.322899
2655.422363	51.626560
2654.744385	66.366531
2654.066162	47.923820
2653.387939	55.287987
2652.709473	62.649830
2652.031006	77.378754
2651.352539	44.209450
2650.673828	47.886013
2649.994873	69.976196
2649.316162	40.506142
2648.636963	73.635902
2647.958008	69.943062
2647.278809	58.890121
2646.599365	51.520721
2645.919922	55.192055
2645.240479	58.862228
2644.560791	66.209549
2643.880859	80.910004
2643.201172	51.480049
2642.520996	55.148483
2641.841064	66.167732
2641.160889	62.481873
2640.480469	58.797176
2639.800049	47.765160
2639.119629	33.062962
2638.438965	62.442394
2637.758301	66.105034
2637.077393	44.063057
2636.396484	44.056095
2635.715332	25.695326
2635.034180	25.691265
2634.353027	29.356806
2633.671631	66.042374
2632.989990	44.021290
2632.308350	55.017914
2631.626709	47.674652
2630.944824	40.333714
2630.262939	47.659580
2629.581055	21.993252
2628.898926	62.304359
2628.216553	32.979443
2627.534180	32.974228
2626.851807	43.958687
2626.169189	40.289089
2625.486572	51.268913
2624.803711	32.953373
2624.120850	40.269974
2623.437988	29.282621
2622.754883	40.257233
2622.071533	47.569202
2621.388184	32.927315
2620.704834	21.948071
2620.021240	58.518925
2619.337646	43.882248
2618.653809	43.875305
2617.969971	47.524059
2617.286133	54.826775
2616.602051	54.818096
2615.917725	36.539612
2615.233398	18.266914
2614.549072	47.486458
2613.864502	47.478939
2613.179932	47.471424
2612.495117	40.161770
2611.810303	40.155411
2611.125488	21.899483
2610.440430	65.688042
2609.755127	21.892548
2609.069824	40.129978
2608.384521	29.180817
2607.698975	40.117268
2607.013428	21.878681
2606.327637	29.166954
2605.641846	29.162333
2604.956055	32.802425
2604.270020	47.373775
2603.583740	58.296947
2602.897461	61.930695
2602.211182	61.920879
2601.524658	10.925483
2600.838135	50.977505
2600.151367	43.688080
2599.464600	43.681156
2598.777832	40.034714
2598.090820	50.945194
2597.403564	32.745289
2596.716309	50.929043
2596.029053	25.460485
2595.341553	43.639626
2594.654053	43.632706
2593.966309	36.354824
2593.278564	36.349060
2592.590820	61.783600
2591.902832	43.605038
2591.214600	43.598122
2590.526367	32.693405
2589.838135	18.160122
2589.149658	47.208828
2588.461182	29.046978
2587.772461	32.672665
2587.083740	21.778322
2586.394775	47.178875
2585.705811	43.542824
2585.016846	72.559853
2584.327637	32.646755
2583.638184	32.641571
2582.948975	18.131329
2582.259277	32.631214
2581.569824	29.000919
2580.879883	47.119015
2580.190186	68.855316
2579.500244	21.740334
2578.810059	36.228138
2578.119873	28.977907
2577.429688	36.216633
2576.739258	36.210884
2576.048584	36.205135
2575.358154	61.538952
2574.667236	25.335545
2573.976563	39.806675
2573.285645	50.654995
2572.594482	57.882229
2571.903320	43.404778
2571.212158	43.397881
2570.520752	68.702400
2569.829102	54.230118
2569.137451	46.991970
2568.445801	32.527733
2567.753906	28.908945
2567.062012	32.517395
2566.370117	36.124699
2565.677979	46.954647
2564.985596	65.003792
2564.293213	39.718227
2563.600830	14.440696
2562.908203	32.486401
2562.215332	32.481236
2561.522705	46.909882
2560.829590	25.255152
2560.136719	28.858442
2559.443604	43.280781
2558.750244	43.273899
2558.056885	28.844679
2557.363525	39.655125
2556.669922	18.022190
2555.976074	14.415460
2555.282227	28.826334
2554.588379	43.232624
2553.894287	36.021454
2553.200195	28.812580
2552.505859	18.004997
2551.811523	18.002132
2551.117188	21.599123
2550.422607	39.592091
2549.727783	39.585793
2549.032959	32.383221
2548.338135	14.390252
2547.643066	39.566895
2546.947998	50.349854
2546.252686	39.554302
2545.557373	35.952732
2544.861816	50.325813
2544.166260	57.506058
2543.470703	68.277573
2542.774902	43.115814
2542.078857	39.516537
2541.382813	46.693924
2540.686768	39.503952
2539.990479	35.906963
2539.294189	25.130873
2538.597656	35.895531
2537.901123	39.478794
2537.204346	21.530457
2536.507568	43.054054
2535.810791	32.285397
2535.113770	50.213730
2534.416504	39.447361
2533.719238	46.612179
2533.021973	35.849808
2532.324463	50.181736
2531.626953	50.173740
2530.929199	42.999210
2530.231445	53.740444
2529.533447	32.239128
2528.835449	32.233990
2528.137451	32.228851
2527.439209	25.062889
2526.740723	46.537945
2526.042236	57.268341
2525.343750	25.050905
2524.645020	21.468781
2523.946289	35.775597
2523.247314	17.884945
2522.548340	21.458513
2521.849121	32.182636
2521.149902	39.328060
2520.450684	17.873539
2519.751221	39.315514
2519.051514	25.014973
2518.351807	39.302975
2517.652100	39.296703
2516.952148	25.003004
2516.252197	42.855453
2515.552002	35.707180
2514.851807	24.991037
2514.151367	14.278315
2513.450928	35.690090
2512.750244	35.684395
2512.049561	49.950180
2511.348877	42.807606
2510.647949	17.833654
2509.946777	21.396971
2509.245605	46.352703
2508.544434	28.520185
2507.843018	53.466812
2507.141602	28.511080
2506.439941	42.759792
2505.738281	28.501976
2505.036377	53.432671
2504.334473	28.492874
2503.632568	39.171444
2502.930420	39.165188
2502.228027	39.158932
2501.525635	28.474674
2500.823242	17.793829
2500.120605	24.907381
2499.417969	28.461031
2498.715088	21.342363
2498.012207	35.564922
2497.309082	39.115162
2496.605957	46.219624
2495.902588	28.438299
2495.199219	35.542194
2494.495605	42.643818
2493.791992	21.318501
2493.088379	24.867609
2492.384521	28.415581
2491.680664	46.167938
2490.976563	35.508121
2490.272461	35.502445
2489.568115	42.596123
2488.863770	21.294655
2488.159180	24.839792
2487.454590	14.191897
2486.749756	17.737034
2486.044922	24.827877
2485.339844	10.638817
2484.634766	42.548462
2483.929688	56.722206
2483.224365	24.811996
2482.519043	28.352030
2481.813477	35.434368
2481.107666	38.971569
2480.402100	28.338425
2479.696045	46.042572
2478.990234	42.494034
2478.284180	21.243618
2477.577881	24.780254
2476.871582	42.473637
2476.165039	42.466839
2475.458496	21.230021
2474.751953	10.613311
2474.045166	17.686020
2473.338379	10.609914
2472.631348	28.288572
2471.924072	38.890560
2471.217041	24.744576
2470.509521	24.740614
2469.802246	28.270460
2469.094482	24.732691
2468.386963	21.196054
2467.679199	38.853207
2466.971191	63.567795
2466.263184	38.840763
2465.554932	28.243303
2464.846680	38.828320
2464.138428	45.880665
2463.429932	17.643581
2462.721436	24.697056
2462.012695	49.386200
2461.303955	7.054041
2460.594971	42.317463
2459.885986	24.681231
2459.176758	28.202600
2458.467529	35.247601
2457.758057	42.290340
2457.048584	31.712669
2456.338867	38.753716
2455.629150	35.225002
2454.919434	31.697420
2454.209473	31.692339
2453.499512	21.124838
2452.789307	38.722660
2452.078857	24.637741
2451.368408	14.076451
2450.657959	38.704033
2449.947266	35.179840
2449.236572	28.139359
2448.525879	10.550567
2447.814697	35.162914
2447.103760	21.094364
2446.392578	14.060654
2445.681152	35.145996
2444.969727	35.140354
2444.258301	14.053886
2443.546631	45.667801
2442.834717	21.074064
2442.122803	42.141365
2441.410889	59.690685
2440.698730	45.638493
2439.986572	35.100899
2439.274170	66.681000
2438.561768	52.634445
2437.849121	42.100796
2437.136475	38.586201
2436.423584	38.580006
2435.710693	28.053680
2434.997803	28.049175
2434.284424	45.572590
2433.571289	31.545189
2432.857910	31.540123
2432.144287	52.558426
2431.430908	52.549984
2430.717041	28.022158
2430.003174	49.030895
2429.289307	24.511511
2428.575195	45.514061
2427.861084	21.003115
2427.146729	24.499697
2426.432373	41.992733
2425.717773	34.988319
2425.003174	38.480968
2424.288330	31.479368
2423.573486	27.977163
2422.858643	34.965832
2422.143555	38.456234
2421.428223	41.945511
2420.712891	41.938770
2419.997559	48.920696
2419.281982	34.937737
2418.566162	24.452484
2417.850586	31.433853
2417.134521	41.905064
2416.418457	48.881378
2415.702393	34.909657
2414.986084	27.923233
2414.269775	17.449213
2413.553223	48.849941
2412.836670	52.330803
2412.120117	27.905272
2411.403076	38.363575
2410.686279	38.357403
2409.969238	52.297134
2409.251953	38.345062
2408.534668	27.882830
2407.817383	41.817513
2407.099854	41.810783
2406.382080	31.353041
2405.664307	27.864883
2404.946533	34.825500
2404.228516	34.819893
2403.510498	20.888573
2402.792236	31.327816
2402.073975	48.724312
2401.355469	41.756969
2400.636963	48.708622
2399.918213	34.786270
2399.199463	31.302603
2398.480469	48.685097
2397.761475	41.723362
2397.042480	34.763866
2396.323242	45.185749
2395.603760	31.277403
2394.884277	31.272364
2394.164795	31.267326
2393.445068	41.683052
2392.725098	20.838167
2392.005127	34.724686
2391.285156	52.078632
2390.564941	31.242146
2389.844727	45.120270
2389.124268	38.172539
2388.403809	52.045071
2387.683105	38.160233
2386.962402	41.622635
2386.241455	48.551914
2385.520508	34.674347
2384.799316	38.135632
2384.078125	38.129486
2383.356689	45.054852
2382.635254	41.582390
2381.913818	58.898884
2381.192139	38.104897
2380.470215	45.025799
2379.748291	45.018536
2379.026367	31.161652
2378.304199	31.156626
2377.581787	34.612888
2376.859375	13.842922
2376.136963	34.601723
2375.414307	48.434597
2374.691650	41.508671
2373.968750	34.584976
2373.245850	38.037334
2372.522705	31.116434
2371.799316	41.481884
2371.076172	24.193859
2370.352783	31.101370
2369.629150	34.551498
2368.905518	31.091331
2368.181641	37.994381
2367.457764	34.534771
2366.733643	48.340874
2366.009521	34.523621
2365.285400	31.066240
2364.561035	31.061224
2363.836426	24.154829
2363.111816	41.401592
2362.387207	34.495754
2361.662354	27.592146
2360.937256	62.072300
2360.212158	51.718563
2359.487061	51.710205
2358.761719	20.680740
2358.036377	41.354801
2357.310791	31.011089
2356.584961	55.121918
2355.859375	34.445633
2355.133301	37.884071
2354.407471	37.877949
2353.681152	37.871826
2352.955078	58.519730
2352.228516	24.092464
2351.502197	34.412243
2350.775635	48.169350
2350.048828	58.481899
2349.322021	41.274666
2348.594971	37.828995
2347.867920	41.261322
2347.140869	44.692535
2346.413330	41.247978
2345.686035	30.930981
2344.958496	37.798416
2344.230713	30.920977
2343.502930	51.526627
2342.775146	54.952843
2342.047119	48.075958
2341.319092	34.334415
2340.590820	44.627522
2339.862305	44.620300
2339.133789	37.749531
2338.405273	48.037083
2337.676514	20.583988
2336.947754	27.440878
2336.218750	48.013763
2335.489746	37.718994
2334.760498	37.712891
2334.031250	47.990452
2333.301758	54.837353
2332.572266	54.828476
2331.842529	44.540924
2331.112793	41.108044
2330.382813	54.801849
2329.652832	65.066658
2328.922607	61.632118
2328.192383	41.081425
2327.462158	54.766361
2326.731689	37.645775
2326.000977	37.639679
2325.270264	58.160988
2324.539307	44.468845
2323.808350	47.881767
2323.077393	30.776150
2322.346191	54.704292
2321.614746	44.440037
2320.883301	34.179104
2320.151855	20.504139
2319.420166	37.584831
2318.688232	40.994987
2317.956299	34.156952
2317.224365	68.302834
2316.492188	51.218822
2315.760010	47.796486
2315.027588	17.067406
2314.295166	23.890493
2313.562500	40.948494
2312.829590	44.353676
2312.096924	57.991554
2311.363770	37.517864
2310.630615	61.382912
2309.897461	71.601784
2309.164063	44.317722
2308.430664	51.127541
2307.697021	51.119247
2306.963379	51.110954
2306.229492	30.661598
2305.495605	47.688084
2304.761719	23.840172
2304.027344	34.051865
2303.293213	47.664875
2302.558838	44.253059
2301.824219	37.438820
2301.089600	47.641670
2300.354736	37.426666
2299.619873	20.411232
2298.885010	23.809238
2298.149658	37.408443
2297.414551	47.603020
2296.679199	44.195629
2295.943604	37.390228
2295.208008	44.181278
2294.472412	23.786057
2293.736572	54.359299
2293.000488	37.365948
2292.264404	47.548939
2291.528320	23.770609
2290.791992	47.533497
2290.055420	37.341679
2289.318848	44.123909
2288.582275	30.542358
2287.845459	16.965219
2287.108398	50.887390
2286.371582	54.271065
2285.634277	44.088078
2284.896973	37.299232
2284.159668	37.293171
2283.422119	40.676849
2282.684570	40.670238
2281.946777	47.440899
2281.208740	60.985527
2280.470703	47.425476
2279.732666	44.030785
2278.994385	50.796490
2278.256104	47.402351
2277.517578	40.623978
2276.779053	54.156498
2276.040283	40.610767
2275.301514	33.836803
2274.562500	54.130081
2273.823486	57.503857
2273.084229	27.056238
2272.344971	37.196274
2271.605469	60.856731
2270.865967	60.846832
2270.126221	40.557957
2269.386475	50.689198
2268.646484	40.544758
2267.906494	37.159981
2267.166260	47.286827
2266.426025	47.279129
2265.685547	40.518375
2264.945068	33.759815
2264.204346	47.256050
2263.463623	50.623241
2262.722656	53.989334
2261.981689	60.728111
2261.240723	43.852051
2260.499268	37.099541
2259.758057	53.954182
2259.016602	50.573811
2258.274902	43.823498
2257.533203	30.334404
2256.791260	53.919048
2256.049316	43.802090
2255.307129	37.057270
2254.564941	47.156116
2253.822754	50.516182
2253.080322	67.343933
2252.337646	43.766426
2251.594971	40.393196
2250.852051	37.021065
2250.109131	43.745037
2249.366211	47.102364
2248.623047	53.822498
2247.879639	30.270222
2247.136230	36.990906
2246.392578	16.811308
2245.648926	57.149132
2244.905273	23.528160
2244.161377	40.327412
2243.417236	40.320839
2242.673096	60.471397
2241.928955	57.102562
2241.184570	50.376396
2240.439941	60.441818
2239.695313	43.645306
2238.950439	40.281403
2238.205566	20.137417
2237.460693	33.556889
2236.715576	33.551414
2235.970215	43.609722
2235.224854	60.372845
2234.479492	63.716492
2233.733887	33.529526
2232.988037	33.524055
2232.242188	40.222301
2231.496338	43.567047
2230.750244	56.962997
2230.003906	36.852394
2229.257568	50.245064
2228.511230	50.236862
2227.764648	40.182930
2227.017822	23.436216
2226.270996	40.169811
2225.523926	50.204067
2224.776855	53.542259
2224.029785	53.533520
2223.282471	60.215374
2222.534912	60.205540
2221.787354	43.474678
2221.039795	23.405619
2220.291992	40.117363
2219.543945	43.453381
2218.795898	40.104259
2218.047852	23.390329
2217.299561	33.409298
2216.551025	26.723072
2215.802490	40.078060
2215.053955	60.107265
2214.305176	46.742455
2213.556152	60.087624
2212.807129	43.389523
2212.058105	43.382431
2211.308838	40.038776
2210.559326	50.040291
2209.809814	20.012844
2209.060303	33.349289
2208.310547	33.343838
2207.560547	40.006062
2206.810547	53.332695
2206.060303	39.992981
2205.310059	29.989830
2204.559814	46.643219
2203.809326	49.966705
2203.058594	63.280807
2202.307861	39.960289
2201.557129	33.294792
2200.806152	36.618282
2200.054932	23.298731
2199.303711	46.589840
2198.552246	29.945709
2197.800781	53.228107
2197.049316	39.914547
2196.297607	36.582348
2195.545654	3.325124
2194.793701	39.894955
2194.041504	43.212463
2193.289307	56.499355
2192.537109	49.844212
2191.784668	46.513649
2191.031982	19.931158
2190.279297	23.249210
2189.526367	59.773895
2188.773438	43.162968
2188.020508	43.155899
2187.267090	43.148830
2186.513916	26.548779
2185.760498	19.908323
2185.006836	59.715187
2184.253174	43.120571
2183.499268	69.644897
2182.745361	36.474686
2181.991211	69.622078
2181.237061	39.777527
2180.482666	39.771011
2179.728271	36.450787
2178.973877	53.010639
2178.218994	53.001953
2177.464355	43.057030
2176.709229	46.361507
2175.954346	29.798941
2175.198975	46.346310
2174.443848	33.099083
2173.688232	69.496674
2172.932861	23.161760
2172.177002	49.624207
2171.421387	39.692856
2170.665283	49.607937
2169.909424	39.679840
2169.153076	33.061111
2168.396729	49.583534
2167.640381	33.050270
2166.883789	33.044846
2166.127197	42.951256
2165.370361	52.854412
2164.613525	39.634304
2163.856445	33.023170
2163.099365	52.828403
2162.342041	29.711102
2161.584473	42.908993
2160.826904	39.601803
2160.069336	59.392952
2159.311523	23.093470
2158.553711	42.880833
2157.795654	52.767746
2157.037354	62.651413
2156.279053	23.078310
2155.520752	46.149044
2154.762207	39.549828
2154.003662	59.315002
2153.244873	49.421051
2152.485840	36.236153
2151.726807	42.817513
2150.967773	39.517368
2150.208252	39.510880
2149.448975	39.504387
2148.689453	39.497898
2147.929688	26.327608
2147.169922	65.808205
2146.410156	55.927788
2145.650146	32.893291
2144.889893	46.043045
2144.129639	36.170734
2143.369141	29.589373
2142.608643	23.010174
2141.847900	36.152905
2141.087158	62.435661
2140.326416	36.141022
2139.565186	45.990101
2138.804199	39.413609
2138.042725	29.555346
2137.281494	32.833874
2136.519775	52.525562
2135.758301	42.670002
2134.996338	29.535913
2134.234619	45.937199
2133.472412	52.491020
2132.710449	39.361794
2131.947998	22.957270
2131.185547	29.511633
2130.423096	45.899433
2129.660400	22.945942
2128.897705	29.497072
2128.134766	39.322960
2127.371826	49.145611
2126.608643	55.689194
2125.845215	55.680031
2125.081787	52.396111
2124.318359	36.016399
2123.554688	39.284149
2122.790771	42.550823
2122.026855	39.271217
2121.262939	39.264755
2120.498779	45.801338
2119.734375	45.793800
2118.969971	39.245365
2118.205322	52.318539
2117.440674	39.232441
2116.676025	45.763645
2115.911133	39.219524
2115.145996	42.480820
2114.380859	42.473824
2113.615479	58.800220
2112.850098	62.056675
2112.084473	39.187233
2111.318848	48.975971
2110.552979	32.645271
2109.787109	32.639893
2109.020996	35.897964
2108.254883	39.154964
2107.488525	26.099007
2106.722168	58.713089
2105.955566	52.180809
2105.188965	42.389919
2104.422119	48.903385
2103.655029	58.674389
2102.887939	71.701317
2102.120850	35.844749
2101.353516	52.129223
2100.585938	42.348011
2099.818359	26.056017
2099.050781	65.129303
2098.282959	42.327065
2097.514893	55.341648
2096.746826	26.038834
2095.978760	52.069077
2095.210449	35.791584
2094.441895	42.292168
2093.673340	58.548725
2092.904541	61.791237
2092.135742	39.019608
2091.366699	52.017559
2090.597656	48.758411
2089.828369	35.750271
2089.059082	29.245394
2088.289551	38.987423
2087.520020	51.974651
2086.750244	29.230915
2085.980469	22.731403
2085.210449	48.702110
2084.440186	29.216442
2083.670166	42.194557
2082.899658	35.697193
2082.129150	51.914616
2081.358643	51.906044
2080.587891	68.115433
2079.816895	25.944450
2079.045898	22.697645
2078.274902	35.661839
2077.503662	12.965798
2076.732178	12.963657
2075.960693	29.163410
2075.188965	35.638279
2074.417236	42.111008
2073.645264	55.059143
2072.873291	68.002998
2072.101074	35.614731
2071.328857	42.083179
2070.556396	45.312859
2069.783936	25.888783
2069.011230	45.297878
2068.238525	54.995476
2067.465576	45.282906
2066.692627	48.509377
2065.919434	38.801086
2065.145996	29.096003
2064.372559	51.717674
2063.599121	38.781841
2062.825439	71.088287
2062.051514	38.769016
2061.277588	45.223038
2060.503662	38.756191
2059.729248	48.437229
2058.955078	19.371687
2058.180664	58.105446
2057.406006	35.503010
2056.631348	74.221283
2055.856445	83.888435
2055.081543	29.033499
2054.306396	45.155746
2053.531250	32.248768
2052.755859	61.262520
2051.980225	35.461903
2051.204590	51.572414
2050.428955	64.454849
2049.653076	25.777670
2048.877197	45.103455
2048.101074	54.759415
2047.324707	54.750347
2046.548340	41.860981
2045.771851	61.171303
2044.995239	54.723152
2044.218506	35.403236
2043.441528	51.487087
2042.664551	32.174099
2041.887329	35.385647
2041.110107	45.028816
2040.332642	64.316223
2039.555176	51.444454
2038.777466	61.080170
2037.999634	32.142132
2037.221802	32.136806
2036.443726	44.984070
2035.665527	32.126156
2034.887207	48.181244
2034.108765	32.115505
2033.330200	38.532219
2032.551514	54.578262
2031.772705	51.359261
2030.993774	60.979012
2030.214600	38.506676
2029.435425	48.125362
2028.656128	38.493908
2027.876587	35.280231
2027.097046	44.894665
2026.317261	60.918369
2025.537476	38.468376
2024.757446	54.487831
2023.977295	57.683426
2023.197021	64.082062
2022.416626	44.850002
2021.636230	38.436481
2020.855591	25.620070
2020.074707	48.029659
2019.293823	32.014462
2018.512817	57.616467
2017.731689	57.606903
2016.950439	54.397491
2016.168945	41.591175
2015.387451	60.777016
2014.605713	35.180851
2013.823975	57.559109
2013.041992	38.366371
2012.260010	44.753334
2011.477783	73.511124
2010.695435	54.325287
2009.912964	54.316265
2009.130371	41.529072
2008.347656	47.910202
2007.564819	63.869659
2006.781860	31.929525
2005.998779	47.886330
2005.215576	60.645943
2004.432129	47.870422
2003.648682	57.434963
2002.864990	47.854515
2002.081299	66.985191
2001.297363	41.460133
2000.513428	31.887110
1999.729248	51.010899
1998.944946	51.002419
1998.160522	63.742428
1997.375977	44.612282
1996.591309	31.860619
1995.806519	54.154049
1995.021606	57.330048
1994.236572	38.213676
1993.451416	66.862816
1992.666016	57.301456
1991.880615	60.474812
1991.094971	44.552975
1990.309326	47.727394
1989.523438	54.082047
1988.737549	44.530750
1987.951416	60.424534
1987.165161	47.695644
1986.378784	60.404434
1985.592285	34.965168
1984.805664	28.603106
1984.018921	47.663910
1983.232056	44.478912
1982.444946	63.530731
1981.657837	60.344151
1980.870605	63.509586
1980.083130	57.149113
1979.295654	44.441910
1978.507935	47.608406
1977.720093	31.733654
1976.932129	60.283905
1976.144165	44.412323
1975.355957	53.920269
1974.567627	72.938805
1973.779053	31.707243
1972.990479	50.723141
1972.201782	57.054028
1971.412964	57.044525
1970.623901	63.372250
1969.834839	66.529778
1969.045532	44.345795
1968.256226	69.674644
1967.466675	56.997028
1966.677002	66.485451
1965.887207	47.481693
1965.097290	60.133457
1964.307251	37.972698
1963.517090	60.113415
1962.726807	50.613388
1961.936401	56.930569
1961.145874	63.245644
1960.355103	50.588081
1959.564331	72.708244
1958.773315	72.696121
1957.982178	41.082260
1957.191040	50.554352
1956.399658	66.341522
1955.608154	91.599205
1954.816528	60.003262
1954.024780	47.363094
1953.232910	85.239349
1952.440918	72.599190
1951.648682	69.431114
1950.856445	72.574966
1950.063965	63.098137
1949.271484	75.705132
1948.478760	69.384789
1947.685913	69.373215
1946.893066	63.056030
1946.099976	75.654610
1945.306763	81.945480
1944.513428	75.629356
1943.719971	69.315338
1942.926270	69.303772
1942.132568	44.095036
1941.338745	53.535030
1940.544678	59.823280
1939.750610	56.665226
1938.956299	56.655762
1938.161865	69.234367
1937.367310	59.783333
1936.572632	37.751587
1935.777832	59.763363
1934.982910	62.898296
1934.187866	72.320953
1933.392700	62.877281
1932.597290	94.300171
1931.801880	59.713459
1931.006226	56.561195
1930.210571	62.835270
1929.414673	40.836102
1928.618652	69.095695
1927.822510	78.504715
1927.026245	81.631256
1926.229858	56.504501
1925.433350	59.633671
1924.636719	75.314148
1923.839844	87.851814
1923.042969	62.740807
1922.245850	84.685928
1921.448730	75.263794
1920.651367	59.573872
1919.853882	56.428967
1919.056274	62.688366
1918.258545	81.481247
1917.460693	62.667397
1916.662720	65.789757
1915.864624	56.381790
1915.066284	68.899544
1914.267944	75.150566
1913.469360	93.922493
1912.670776	71.995193
1911.871948	65.723740
1911.072998	53.196030
1910.273926	71.959053
1909.474731	46.921963
1908.675415	37.531288
1907.875977	81.304176
1907.076294	56.278088
1906.276611	78.150925
1905.476807	68.761299
1904.676758	74.999763
1903.876587	71.862740
1903.076294	74.974648
1902.275879	49.974731
1901.475342	96.809822
1900.674683	74.936989
1899.873901	78.046288
1899.072998	59.305244
1898.271851	78.020142
1897.470703	68.646225
1896.669312	102.952087
1895.867920	77.980934
1895.066284	74.849152
1894.264526	109.136726
1893.462646	87.294746
1892.660645	77.928680
1891.858521	65.449120
1891.056152	81.018661
1890.253784	87.236237
1889.451172	84.106560
1888.648560	87.206993
1887.845703	84.078362
1887.042725	84.064262
1886.239624	77.824226
1885.436401	68.473839
1884.633057	71.574280
1883.829590	105.787712
1883.025879	49.774105
1882.222168	74.648636
1881.418213	62.196758
1880.614258	59.077011
1879.810059	74.611076
1879.005737	71.490280
1878.201294	71.478287
1877.396729	93.216904
1876.592041	55.920757
1875.787231	68.336121
1874.982178	55.901989
1874.177124	90.049202
1873.371826	86.929466
1872.566406	99.331284
1871.760986	108.625351
1870.955322	55.855091
1870.149536	80.666031
1869.343506	68.244408
1868.537476	74.435951
1867.731323	86.827354
1866.924927	65.109581
1866.118530	74.398453
1865.311890	58.888885
1864.505127	83.670151
1863.698242	83.656097
1862.891235	71.250626
1862.084106	86.725327
1861.276855	77.420319
1860.469482	61.925846
1859.661865	99.064705
1858.854126	65.000290
1858.046387	64.989365
1857.238403	86.637924
1856.430298	77.342293
1855.622070	68.049774
1854.813721	68.038338
1854.005249	77.303299
1853.196533	77.290298
1852.387817	98.914955
1851.578857	74.173744
1850.769775	74.161270
1849.960693	86.506935
1849.151367	77.225349
1848.341919	61.769886
1847.532227	83.375320
1846.722534	89.536209
1845.912720	77.173409
1845.102661	89.506088
1844.292603	67.889748
1843.482300	77.134468
1842.671875	70.951767
1841.861328	83.277191
1841.050659	107.933754
1840.239868	61.666050
1839.428833	67.821236
1838.617798	80.138885
1837.806519	86.288887
1836.995117	77.030685
1836.183716	83.179131
1835.372070	73.924561
1834.560303	98.549484
1833.748291	70.820518
1832.936279	92.359032
1832.124146	101.577827
1831.311768	83.095139
1830.499390	70.772827
1829.686768	86.143715
1828.874023	95.357338
1828.061157	79.963646
1827.248169	61.500137
1826.434937	86.085686
1825.621704	86.071182
1824.808228	89.130135
1823.994751	98.333923
1823.181030	92.172523
1822.367188	98.300789
1821.553223	116.712509
1820.739136	95.196793
1819.924927	98.251091
1819.110474	89.025047
1818.296021	64.455544
1817.481323	79.788651
1816.666626	76.706924
1815.851685	85.897270
1815.036621	76.681061
1814.221436	64.401230
1813.406006	67.456573
1812.590576	76.642273
1811.774902	95.020393
1810.959229	104.198334
1810.143311	76.603500
1809.327271	94.972313
1808.511108	91.893188
1807.694824	79.627327
1806.878418	82.675964
1806.061768	70.415794
1805.245117	91.831184
1804.428223	100.997261
1803.611206	128.520279
1802.794067	73.427765
1801.976807	104.005104
1801.159424	88.695267
1800.341919	82.564407
1799.524170	76.435623
1798.706421	67.251991
1797.888428	97.804565
1797.070313	106.955681
1796.252075	76.384010
1795.433716	103.864716
1794.615234	106.901505
1793.796509	106.883453
1792.977783	76.332428
1792.158813	73.266754
1791.339844	85.463440
1790.520630	85.448997
1789.701294	100.690735
1788.881714	94.572289
1788.062134	91.506104
1787.242432	82.341576
1786.422485	67.081802
1785.602417	60.973148
1784.782349	76.203552
1783.962036	70.095421
1783.141479	88.366241
1782.320923	82.258110
1781.500244	60.921635
1780.679321	67.002472
1779.858398	100.486710
1779.037231	82.202499
1778.215942	115.672844
1777.394531	112.609772
1776.572998	73.031822
1775.751221	100.401779
1774.929443	91.258904
1774.107422	97.326363
1773.285278	69.941490
1772.463013	100.333862
1771.640625	130.715942
1770.818115	88.142349
1769.995483	100.282944
1769.172607	121.534515
1768.349731	109.362549
1767.526611	85.045364
1766.703369	91.104614
1765.880005	88.052887
1765.056519	103.216949
1764.232910	109.270027
1763.409058	121.390594
1762.585083	112.267288
1761.761108	97.079590
1760.936890	115.262497
1760.112549	97.046722
1759.288086	93.998093
1758.463379	90.950485
1757.638672	81.841576
1756.813721	81.827713
1755.988647	96.964569
1755.163574	106.037025
1754.338257	109.048180
1753.512695	115.086914
1752.687134	93.870781
1751.861328	105.965187
1751.035522	108.974297
1750.209473	102.902725
1749.383301	102.885284
1748.557007	127.072044
1747.730591	105.875427
1746.903931	90.734978
1746.077271	108.863518
1745.250366	114.892014
1744.423340	102.780685
1743.596313	81.606117
1742.768921	93.680031
1741.941528	114.814110
1741.114014	102.710991
1740.286255	102.693573
1739.458374	105.696045
1738.630493	87.561867
1737.802368	120.754501
1736.973999	114.697319
1736.145630	96.570831
1735.317139	93.537117
1734.488403	123.689392
1733.659546	96.521683
1732.830566	87.457932
1732.001465	105.534760
1731.172241	84.413483
1730.342896	111.527458
1729.513306	114.522270
1728.683594	126.555756
1727.853882	93.394348
1727.023926	93.378487
1726.193726	111.432823
1725.363525	75.279663
1724.533203	105.373634
1723.702637	120.406563
1722.871948	117.376457
1722.041138	132.402237
1721.210205	93.267548
1720.379150	117.316666
1719.547974	93.235863
1718.716553	102.241318
1717.885010	87.191017
1717.053467	120.243042
1716.221558	114.211479
1715.389648	114.192070
1714.557617	87.131775
1713.725342	123.165359
1712.893066	108.126816
1712.060547	111.111450
1711.227905	129.107574
1710.395142	144.095581
1709.562256	132.065170
1708.729126	108.034950
1707.895874	135.020721
1707.062622	128.997864
1706.229126	110.979286
1705.395508	107.961487
1704.561646	128.932068
1703.727783	104.926857
1702.893677	98.914207
1702.059570	122.872505
1701.225220	116.858841
1700.390747	95.867867
1699.556030	107.833000
1698.721313	110.809509
1697.886353	131.751053
1697.051392	104.784134
1696.216187	152.659470
1695.380859	149.640671
1694.545410	137.645996
1693.709717	134.630768
1692.874023	143.581711
1692.038086	134.584930
1691.202026	107.649620
1690.365845	122.580086
1689.529541	110.602219
1688.692993	116.560867
1687.856445	110.564552
1687.019653	119.508888
1686.182739	125.462967
1685.345703	116.481483
1684.508545	89.585876
1683.671143	128.384552
1682.833740	104.481255
1681.996094	104.463455
1681.158325	116.382301
1680.320435	149.182663
1679.482422	134.241516
1678.644287	146.149185
1677.805908	143.142151
1676.967407	119.264793
1676.128784	137.131134
1675.290039	146.049576
1674.451172	119.203819
1673.612183	119.183495
1672.772949	122.142258
1671.933594	92.335716
1671.094116	128.056732
1670.254517	122.079788
1669.414795	119.081924
1668.574829	95.249290
1667.734863	107.137177
1666.894653	139.849686
1666.054321	107.100632
1665.213867	118.980400
1664.373169	130.856110
1663.532471	142.727768
1662.691528	124.865494
1661.850464	101.064339
1661.009277	145.626694
1660.167969	104.001320
1659.326538	136.664124
1658.484863	103.965820
1657.643066	112.857910
1656.801147	145.502472
1655.959106	145.477631
1655.116943	106.863274
1654.274658	127.620453
1653.432129	130.566071
1652.589478	97.907837
1651.746704	103.823914
1650.903809	112.703850
1650.060791	124.546143
1649.217529	121.559990
1648.374146	124.503601
1647.530640	136.337799
1646.687012	136.314499
1645.843262	148.142624
1644.999390	121.456200
1644.155273	124.397285
1643.311035	118.453362
1642.466675	127.315605
1641.622192	142.095459
1640.777588	133.191727
1639.932739	106.535164
1639.087769	121.310974
1638.242798	118.331940
1637.397461	121.269508
1636.552124	121.248772
1635.706665	136.011948
1634.860962	124.163589
1634.015137	115.275047
1633.169189	130.031662
1632.323120	135.918945
1631.476929	141.804199
1630.630493	121.103706
1629.783936	124.036232
1628.937256	109.251320
1628.090454	153.516129
1627.243530	106.262215
1626.396484	129.853821
1625.549194	132.782318
1624.701782	120.958748
1623.854248	135.686584
1623.006592	117.968140
1622.158691	132.691452
1621.310791	144.461517
1620.462646	126.750648
1619.614380	97.257095
1618.765991	138.493973
1617.917358	126.685555
1617.068726	123.718193
1616.219849	147.258347
1615.370850	120.731163
1614.521729	105.989700
1613.672363	129.520782
1612.822998	129.498596
1611.973389	123.591118
1611.123657	138.280655
1610.273804	147.081879
1609.423828	149.997818
1608.573608	105.862671
1607.723389	120.545158
1606.872925	120.524506
1606.022339	123.442970
1605.171509	114.605972
1604.320679	111.648216
1603.469604	135.129944
1602.618408	129.232574
1601.767090	129.210419
1600.915649	129.188263
1600.064087	123.294930
1599.212280	146.754501
1598.360352	129.121826
1597.508301	132.033768
1596.656128	134.944702
1595.803833	155.453094
1594.951294	108.505249
1594.098633	111.418709
1593.245850	149.509979
1592.392944	111.380486
1591.539795	152.389252
1590.686646	117.202393
1589.833252	140.618744
1588.979736	120.091225
1588.126099	122.999168
1587.272217	134.690262
1586.418335	111.246773
1585.564209	93.665413
1584.709961	122.914749
1583.855591	105.337410
1583.000977	125.798088
1582.146362	114.076355
1581.291504	111.132233
1580.436523	143.277481
1579.581421	125.711716
1578.726074	140.305252
1577.870605	140.281158
1577.015137	105.192795
1576.159424	116.860809
1575.303467	122.682777
1574.447510	128.502731
1573.591309	116.800598
1572.734985	128.458588
1571.878540	131.355515
1571.021973	143.006989
1570.165161	134.228394
1569.308350	134.205322
1568.451294	134.182251
1567.594116	119.576675
1566.736694	139.968140
1565.879272	119.535568
1565.021606	169.070023
1564.163818	148.639465
1563.305908	163.183899
1562.447876	151.501846
1561.589600	160.214783
1560.731201	154.362244
1559.872681	154.335693
1559.014038	139.751678
1558.155273	130.994675
1557.296265	136.793121
1556.437134	125.129623
1555.577881	145.474533
1554.718506	168.721420
1553.859009	139.607498
1552.999268	127.951515
1552.139404	177.356812
1551.279419	139.535431
1550.419312	98.820595
1549.558960	148.205368
1548.698608	151.085358
1547.838013	168.489273
1546.977173	130.701920
1546.116333	165.527267
1545.255249	136.463898
1544.394165	142.246384
1543.532837	150.929352
1542.671265	127.687454
1541.809692	133.468445
1540.947876	145.049408
1540.085938	113.119049
1539.223877	159.499390
1538.361694	127.577522
1537.499268	144.949478
1536.636841	144.924515
1535.774170	150.695526
1534.911377	144.874573
1534.048340	139.055618
1533.185303	127.445686
1532.322021	167.967636
1531.458618	156.356705
1530.594971	144.749771
1529.731323	124.463348
1528.867432	109.971901
1528.003418	144.674927
1527.139282	118.612984
1526.275024	127.270035
1525.410522	127.248085
1524.545898	138.792160
1523.681152	173.460281
1522.816284	118.510750
1521.951172	161.840424
1521.086060	161.812500
1520.220703	127.116463
1519.355225	129.983047
1518.489502	118.408562
1517.623779	144.375763
1516.757813	129.915771
1515.891724	161.645065
1515.025513	147.187057
1514.159058	141.390610
1513.292480	124.056061
1512.425781	164.418015
1511.558960	126.897263
1510.692017	164.361267
1509.824829	132.619522
1508.957520	149.891830
1508.090088	141.219833
1507.222534	155.603149
1506.354736	164.219406
1505.486938	155.549408
1504.618896	129.602127
1503.750610	152.616135
1502.882324	123.799248
1502.013794	155.441971
1501.145142	164.049286
1500.276367	146.755585
1499.407471	152.484360
1498.538330	138.075180
1497.669067	149.555588
1496.799683	186.912186
1495.930176	149.503906
1495.060547	169.600113
1494.190674	158.074463
1493.320679	140.805634
1492.450562	155.146729
1491.580200	137.884369
1490.709717	146.476807
1489.839233	155.066269
1488.968384	163.652756
1488.097534	166.495056
1487.226440	195.167343
1486.355347	177.915924
1485.483887	183.623383
1484.612427	172.117142
1483.740845	183.559860
1482.869019	180.660477
1481.997070	163.426437
1481.124878	212.130936
1480.252686	194.897400
1479.380249	197.729324
1478.507690	214.885971
1477.635010	209.119492
1476.762207	217.675751
1475.889160	231.956375
1475.015991	214.737244
1474.142700	271.953400
1473.269165	280.492859
1472.395630	297.614349
1471.521851	309.007538
1470.647949	300.371948
1469.773804	334.642212
1468.899658	394.637848
1468.025269	460.331085
1467.150757	474.544861
1466.276001	554.492493
1465.401245	648.700989
1464.526245	677.160828
1463.651123	799.882629
1462.775879	896.855774
1461.900391	999.506775
1461.024780	1053.583130
1460.149048	1193.282959
1459.273193	1270.140869
1458.397217	1289.896973
1457.520996	1312.499512
1456.644653	1240.952881
1455.768188	1140.908203
1454.891479	1063.712524
1454.014648	1029.312622
1453.137695	972.118408
1452.260620	877.890198
1451.383423	783.694580
1450.505981	863.339172
1449.628418	754.934692
1448.750732	646.567749
1447.872803	646.455566
1446.994873	575.160217
1446.116699	529.511108
1445.238403	557.882629
1444.359863	438.260284
1443.481201	423.957458
1442.602417	440.953064
1441.723511	455.098358
1440.844482	415.205170
1439.965210	432.193359
1439.085815	420.746796
1438.206299	477.521576
1437.326538	491.648132
1436.446777	531.342407
1435.566772	585.227478
1434.686646	605.008789
1433.806274	599.223877
1432.925781	545.170593
1432.045166	502.491882
1431.164429	420.089722
1430.283569	366.095673
1429.402466	295.095642
1428.521240	258.163818
1427.639893	249.609543
1426.758301	255.238144
1425.876709	238.180862
1424.994873	212.624527
1424.112793	192.746078
1423.230713	187.044556
1422.348389	192.679077
1421.465942	172.814423
1420.583374	181.281982
1419.700562	169.922302
1418.817627	152.903488
1417.934570	178.356384
1417.051392	181.155945
1416.167969	178.294373
1415.284546	169.774628
1414.400757	217.839554
1413.516968	166.886993
1412.633057	158.373657
1411.748901	180.966980
1410.864624	192.243973
1409.980103	180.904022
1409.095459	163.915741
1408.210815	183.666718
1407.325806	192.110199
1406.440796	175.128830
1405.555542	166.625839
1404.670166	146.831116
1403.784668	177.860580
1402.899048	160.893463
1402.013184	158.043259
1401.127197	126.976936
1400.241089	160.809448
1399.354736	160.781448
1398.468262	160.753464
1397.581665	174.824188
1396.694946	157.878220
1395.807983	155.031952
1394.920898	174.732864
1394.033691	174.702423
1393.146362	149.316376
1392.258789	160.557571
1391.371094	154.896973
1390.483276	208.370529
1389.595337	202.703568
1388.707153	174.519882
1387.818848	180.118149
1386.930420	196.969894
1386.041748	199.748932
1385.152954	174.398239
1384.264038	185.617371
1383.375000	236.199112
1382.485718	196.798279
1381.596313	208.007629
1380.706787	227.644318
1379.817139	247.274155
1378.927246	227.564926
1378.037231	258.423737
1377.147095	266.804047
1376.256714	269.565491
1375.366333	291.978333
1374.475586	255.436478
1373.584839	283.456970
1372.693970	274.989471
1371.802856	311.413300
1370.911499	325.384155
1370.020142	280.454620
1369.128540	330.878693
1368.236816	294.374573
1367.344971	277.504730
1366.453003	277.456299
1365.560791	294.220459
1364.668457	310.978760
1363.775879	361.344635
1362.883301	336.075867
1361.990479	386.419739
1361.097534	461.942932
1360.204346	459.063110
1359.311035	540.144531
1358.417603	526.059265
1357.524048	523.169678
1356.630249	486.714539
1355.736450	486.629517
1354.842285	408.249969
1353.948120	391.404175
1353.053711	341.021179
1352.159180	293.450562
1351.264526	268.250763
1350.369751	265.410095
1349.474731	276.536926
1348.579590	229.010742
1347.684204	268.063263
1346.788818	254.057220
1345.893188	284.717651
1344.997314	259.550110
1344.101440	279.037354
1343.205322	259.459351
1342.309082	312.412537
1341.412720	284.468811
1340.516113	317.880096
1339.619385	292.733093
1338.722534	359.580597
1337.825439	356.730743
1336.928223	412.397766
1336.030884	426.255524
1335.133423	445.679413
1334.235718	531.936707
1333.337891	604.241211
1332.439941	715.496826
1331.541870	826.713440
1330.643555	957.372559
1329.745117	1021.204163
1328.846436	1104.487915
1327.947754	1140.455322
1327.048828	956.702332
1326.149780	931.509216
1325.250488	767.317993
1324.351074	686.573730
1323.451538	578.066101
1322.551880	547.399414
1321.651978	447.288666
1320.751953	369.434601
1319.851807	374.924347
1318.951416	344.314606
1318.050903	324.820587
1317.150269	313.660645
1316.249512	294.178772
1315.348511	283.028076
1314.447388	249.686890
1313.546021	255.190765
1312.644653	230.186096
1311.743042	232.918579
1310.841309	221.788345
1309.939331	194.030777
1309.037231	241.110260
1308.135010	210.588120
1307.232666	235.484894
1306.330078	249.293213
1305.427368	257.557831
1304.524536	287.971130
1303.621460	310.068359
1302.718262	276.798187
1301.814941	243.539673
1300.911499	249.030975
1300.007813	232.388138
1299.104004	210.219040
1298.199951	251.665466
1297.295898	232.265823
1296.391602	254.341736
1295.487061	276.409882
1294.582520	237.670792
1293.677734	262.497223
1292.772827	226.536774
1291.867676	220.972687
1290.962402	198.840515
1290.057007	196.044403
1289.151489	207.052795
1288.245728	182.174469
1287.339844	193.181412
1286.433838	179.351242
1285.527588	160.008377
1284.621216	168.255112
1283.714722	165.467773
1282.808105	173.710632
1281.901245	135.084534
1280.994263	157.111542
1280.087036	187.398376
1279.179810	148.790207
1278.272217	162.538513
1277.364624	151.492325
1276.456787	134.942169
1275.548828	151.439072
1274.640747	189.953812
1273.732544	148.633362
1272.824097	154.111206
1271.915405	126.569092
1271.006714	145.803970
1270.097778	129.275116
1269.188721	121.002235
1268.279541	140.227921
1267.370117	123.708763
1266.460571	162.167404
1265.550781	120.917130
1264.640991	162.110352
1263.730957	145.598938
1262.820679	181.279984
1261.910400	148.293884
1260.999878	159.250595
1260.089233	164.712997
1259.178345	167.428741
1258.267334	137.212524
1257.356201	164.626053
1256.444824	142.650787
1255.533447	183.767700
1254.621704	208.416214
1253.709961	175.477493
1252.797974	202.860123
1251.885864	200.083542
1250.973633	167.163651
1250.061157	153.434692
1249.148560	136.971130
1248.235840	134.208054
1247.322876	147.876709
1246.409790	172.492432
1245.496582	153.299591
1244.583130	153.272583
1243.669556	131.353348
1242.755859	145.010437
1241.841919	120.364807
1240.927856	139.489166
1240.013672	133.995392
1239.099365	144.908234
1238.184814	150.349976
1237.270142	128.458237
1236.355225	147.564285
1235.440186	142.073898
1234.525024	131.122009
1233.609741	166.604843
1232.694214	144.729492
1231.778564	133.782913
1230.862671	152.867798
1229.946777	180.133835
1229.030640	182.830887
1228.114258	174.613617
1227.197876	163.671387
1226.281128	215.462646
1225.364380	204.517044
1224.447388	234.471497
1223.530273	261.689453
1222.613037	302.525024
1221.695557	316.096466
1220.777954	337.836578
1219.860229	373.189056
1218.942261	370.399658
1218.024170	403.010803
1217.105957	383.881714
1216.187500	359.315155
1215.268921	310.262848
1214.350220	291.160187
1213.431274	261.181702
1212.512207	242.094437
1211.593018	236.612320
1210.673706	201.220901
1209.754150	206.622803
1208.834351	201.149811
1207.914551	187.525467
1206.994507	201.078735
1206.074219	190.176010
1205.153931	152.113922
1204.233398	141.223679
1203.312744	141.198715
1202.391846	146.603531
1201.470825	146.577606
1200.549683	135.696014
1199.628296	119.391388
1198.706787	138.361008
1197.785156	143.761505
1196.863281	124.752068
1195.941284	135.576096
1195.019165	140.974213
1194.096802	157.212646
1193.174438	121.953758
1192.251709	124.641792
1191.328979	143.583618
1190.406006	124.597694
1189.482788	113.742981
1188.559570	119.138237
1187.636108	102.873901
1186.712402	127.216263
1185.788696	119.074997
1184.864746	121.759689
1183.940552	137.969894
1183.016357	159.583984
1182.091919	143.329727
1181.167236	121.673500
1180.242554	148.685730
1179.317505	129.739120
1178.392456	132.418564
1177.467163	151.308701
1176.541748	164.789215
1175.616211	189.068893
1174.690430	213.339951
1173.764526	197.101990
1172.838501	264.555817
1171.912231	334.684784
1170.985840	372.405792
1170.059204	464.075684
1169.132446	472.086365
1168.205566	490.882813
1167.278564	493.492493
1166.351318	520.367065
1165.423828	509.491943
1164.496338	512.096863
1163.568604	458.110718
1162.640747	441.863739
1161.712646	444.479218
1160.784424	430.933716
1159.856079	455.093048
1158.927490	444.242798
1157.998779	457.623535
1157.069946	489.839478
1156.140869	546.262512
1155.211670	605.355957
1154.282349	626.768555
1153.352783	712.721863
1152.423096	806.711792
1151.493164	900.668335
1150.563232	822.554077
1149.632935	798.219604
1148.702637	714.776917
1147.772095	580.317322
1146.841431	507.687531
1145.910522	410.912201
1144.979492	354.449554
1144.048340	332.908630
1143.116943	271.111298
1142.185425	271.063171
1141.253784	193.198837
1140.321899	193.164536
1139.389893	177.036041
1138.457764	174.322708
1137.525391	174.291748
1136.592896	142.089569
1135.660278	136.703400
1134.727417	120.599220
1133.794434	155.411377
1132.861206	139.309586
1131.927856	107.142174
1130.994385	115.157372
1130.060669	131.202515
1129.126831	109.762192
1128.192871	136.509186
1127.258667	139.161102
1126.324341	96.325172
1125.389893	107.008942
1124.455200	104.315163
1123.520386	96.273804
1122.585327	122.994644
1121.650146	109.606171
1120.714844	98.895294
1119.779297	104.222443
1118.843628	98.860115
1117.907837	109.528206
1116.971802	117.521561
1116.035645	106.818771
1115.099365	109.469765
1114.162842	114.789322
1113.226196	112.099854
1112.289307	125.422745
1111.352417	104.055672
1110.415161	146.719055
1109.477905	117.354355
1108.540405	130.666809
1107.602661	143.974533
1106.664917	149.280334
1105.726807	146.588516
1104.788696	162.551041
1103.850342	173.179276
1102.911865	191.795181
1101.973145	186.434326
1101.034302	189.063995
1100.095337	167.731125
1099.156128	151.729706
1098.216797	130.411072
1097.277344	122.404907
1096.337646	130.364609
1095.397827	130.341370
1094.457764	101.063057
1093.517700	114.340446
1092.577271	106.344246
1091.636841	114.299690
1090.696167	114.279320
1089.755249	116.916130
1088.814209	90.328178
1087.873047	92.968307
1086.931763	100.919022
1085.990234	108.866898
1085.048584	111.502304
1084.106689	116.791100
1083.164673	119.424141
1082.222412	95.522270
1081.280151	90.199387
1080.337524	84.878395
1079.394897	103.427094
1078.452026	98.105629
1077.509033	100.739159
1076.565796	84.817841
1075.622437	90.102867
1074.678955	113.933296
1073.735229	105.965546
1072.791382	84.757301
1071.847290	111.224106
1070.903076	71.488441
1069.958740	105.889900
1069.014160	127.045189
1068.069458	105.852089
1067.124512	103.187355
1066.179565	89.942146
1065.234253	121.664696
1064.288940	121.642967
1063.343384	129.553055
1062.397583	113.669113
1061.451660	116.291801
1060.505615	100.415886
1059.559448	124.176407
1058.613037	113.587898
1057.666382	129.414246
1056.719727	113.547310
1055.772827	132.008163
1054.825684	121.425797
1053.878418	126.682533
1052.931030	153.047363
1051.983398	158.296555
1051.035645	145.079239
1050.087769	168.789291
1049.139648	166.122238
1048.191406	179.274490
1047.242920	195.057938
1046.294312	213.471176
1045.345581	268.767456
1044.396606	268.719391
1043.447510	287.109558
1042.498291	334.462280
1041.548828	271.208282
1040.599121	310.649048
1039.649414	323.754211
1038.699341	310.537872
1037.749268	323.638336
1036.798950	341.995544
1035.848511	376.127777
1034.897827	336.613556
1033.947021	331.294647
1032.996094	249.740936
1032.044922	247.067841
1031.093506	241.767776
1030.142090	210.195206
1029.190430	197.022720
1028.238525	207.493423
1027.286499	175.943924
1026.334351	157.533493
1025.381958	152.255096
1024.429443	136.480118
1023.476807	131.207367
1022.523926	141.678574
1021.570923	157.392426
1020.617737	128.514114
1019.664368	128.491089
1018.710815	128.468063
1017.757080	149.415649
1016.803223	123.180298
1015.849121	146.741699
1014.894897	157.195068
1013.940491	146.689102
1012.985962	178.090530
1012.031189	157.110535
1011.076294	167.554520
1010.121216	162.289322
1009.165955	149.174713
1008.210510	175.314270
1007.254944	190.979797
1006.299133	180.482773
1005.343201	175.219940
1004.387085	188.262268
1003.430786	219.599915
1002.474365	266.609192
1001.517700	287.468109
1000.560913	347.512695
999.603943	436.272217
998.646790	509.328247
997.689514	574.523560
996.731995	467.369354
995.774353	422.906372
994.816528	383.679504
993.858521	339.247467
992.900330	263.521851
991.942017	211.301361
990.983459	239.953506
990.024780	179.932800
989.065918	164.256958
988.106873	164.227463
987.147705	143.347427
986.188293	153.745056
985.228760	143.295914
984.269043	166.714386
983.309143	153.662201
982.349060	138.010727
981.388794	153.606979
980.428406	156.182404
979.467834	203.000641
978.507019	179.545197
977.546082	262.765289
976.585022	306.937927
975.623718	395.306580
974.662292	504.445313
973.700623	540.751343
972.738831	540.654053
971.776855	540.556824
970.814758	478.098877
969.852417	397.478088
968.889954	332.470886
967.927246	272.680939
966.964417	228.491486
966.001404	189.509979
965.038208	176.498077
964.074890	176.466309
963.111328	184.218430
962.147644	145.272888
961.183777	155.621506
960.219727	142.627380
959.255493	127.045151
958.291077	129.614563
957.326538	124.407585
956.361755	98.471603
955.396851	147.680801
954.431763	126.930809
953.466492	121.728035
952.501038	121.706108
951.535461	137.218338
950.569641	106.130913
949.603699	165.637924
948.637573	124.206062
947.671265	131.945160
946.704773	168.135101
945.738098	134.483841
944.771240	193.932129
943.804260	211.994247
942.837097	217.125687
941.869751	240.345825
940.902222	266.141479
939.934509	263.510071
938.966614	250.547729
937.998535	253.085052
937.030334	224.637024
936.061951	175.546707
935.093323	157.447327
934.124573	123.870628
933.155640	129.008636
932.186584	118.666527
931.217285	105.748917
930.247864	116.044937
929.278198	92.819206
928.308411	118.580917
927.338440	131.446426
926.368286	95.345879
925.397949	115.940277
924.427429	95.311462
923.456787	90.143219
922.485901	113.302452
921.514893	82.386902
920.543701	108.113289
919.572327	108.093773
918.600769	82.342285
917.629028	100.336540
916.657104	118.324287
915.685059	102.872101
914.712769	113.138878
913.740356	110.547562
912.767761	89.964317
911.794983	100.227844
910.822021	105.348701
909.848877	123.312775
908.875549	92.467873
907.902039	89.883072
906.928406	102.704948
905.954590	118.089340
904.980530	120.634689
904.006348	161.672592
903.031982	169.340668
902.057434	200.093689
901.082703	212.881714
900.107849	241.051361
899.132751	223.060379
898.157532	217.893143
897.182068	251.172546
896.206482	189.626602
895.230713	199.840530
894.254761	138.326111
893.278625	153.667877
892.302307	133.154724
891.325806	110.088791
890.349182	117.748093
889.372314	153.556686
888.395325	104.911407
887.418091	117.684181
886.440735	117.662880
885.463196	104.854446
884.485474	112.506355
883.507568	109.929489
882.529480	125.245804
881.551270	140.556564
880.572815	112.424896
879.594238	117.513832
878.615417	99.613251
877.636475	114.917542
876.657349	135.322815
875.677979	117.428711
874.698486	137.826126
873.718811	127.593658
872.739014	158.187469
871.758972	165.811661
870.778748	168.332092
869.798401	153.001450
868.817810	117.279846
867.837097	150.396881
866.856140	127.431885
865.875061	135.053314
864.893799	150.315109
863.912354	155.382355
862.930725	160.447769
861.948914	147.687027
860.966919	150.206116
859.984741	165.451294
859.002441	183.235886
858.019897	185.747131
857.037231	193.345505
856.054321	178.049072
855.071289	203.447739
854.088074	228.837173
853.104614	236.422180
852.121033	274.504974
851.137268	259.207642
850.153320	307.435608
849.169189	287.057159
848.184937	355.581482
847.200439	358.056335
846.215759	441.776550
845.230896	540.697266
844.245911	667.500244
843.260681	971.886597
842.275330	1283.773682
841.289795	1326.663452
840.304016	1270.626465
839.318115	1065.002319
838.332031	841.706116
837.345764	666.652039
836.359314	595.569458
835.372681	532.114319
834.385864	526.950806
833.398865	504.058441
832.411743	430.524414
831.424377	430.446167
830.436829	412.646912
829.449158	377.136261
828.461243	339.107880
827.473206	308.683868
826.484924	318.746704
825.496521	306.042358
824.507935	270.583282
823.519104	280.647491
822.530151	300.819641
821.541016	255.271072
820.551697	265.332550
819.562195	285.496399
818.572510	282.918427
817.582642	315.699707
816.592590	368.670166
815.602356	355.979706
814.611938	424.068848
813.621399	507.275726
812.630615	648.488220
811.639648	754.329529
810.648560	966.072327
809.657227	1266.005249
808.665771	1381.762085
807.674072	1288.233398
806.682251	1096.437378
805.690186	864.389709
804.697998	685.338745
803.705566	579.408813
802.713013	443.292969
801.720276	337.445648
800.727356	297.099518
799.734253	286.976044
798.740906	256.721252
797.747437	261.707306
796.753784	244.047928
795.759949	241.487961
794.765930	201.203293
793.771729	163.447876
792.777344	181.016953
791.782776	183.497620
790.788025	133.200012
789.793091	153.277725
788.798035	128.126862
787.802734	110.520668
786.807251	118.034645
785.811584	107.969452
784.815796	125.522972
783.819763	105.420067
782.823547	100.381752
781.827148	140.508820
780.830627	105.362389
779.833862	110.359505
778.836975	97.800804
777.839844	95.275703
776.842529	120.326294
775.845093	105.266289
774.847412	92.717667
773.849609	110.238716
772.851563	90.178848
771.853394	87.657875
770.854980	105.170250
769.856445	90.129471
768.857666	102.628708
767.858765	105.112648
766.859680	115.102356
765.860352	122.586639
764.860901	122.564247
763.861206	132.545273
762.861389	100.015892
761.861389	89.997864
760.861145	104.978325
759.860779	92.464005
758.860168	82.452827
757.859436	79.939644
756.858521	82.422691
755.857361	72.418823
754.856079	74.902328
753.854614	74.888641
752.852905	69.883286
751.851074	104.805763
750.848999	132.230713
749.846802	122.228683
748.844421	112.230301
747.841797	92.261375
746.839050	97.230690
745.836121	102.198181
744.832947	94.702942
743.829651	87.210434
742.826111	89.685753
741.822449	64.761192
740.818604	84.672218
739.814514	89.636528
738.810303	77.172890
737.805847	84.625740
736.801270	62.213421
735.796448	82.106682
734.791504	89.554527
733.786316	101.973984
732.781006	99.468597
731.775452	91.991608
730.769775	114.347008
729.763855	116.811417
728.757751	96.910866
727.751526	69.564293
726.745056	94.391388
725.738403	104.308212
724.731628	89.390663
723.724609	86.891663
722.717407	86.875748
721.710083	96.786667
720.702515	89.325165
719.694763	94.270393
718.686829	104.174500
717.678711	123.994530
716.670410	79.341949
715.661987	79.327408
714.653320	74.355812
713.644470	71.864105
712.635437	91.671875
711.626221	94.132225
710.616821	84.208130
709.607178	104.002724
708.597412	89.128845
707.587463	69.309715
706.577332	84.146362
705.567017	86.605362
704.556458	81.641502
703.545776	81.626526
702.534912	86.557701
701.523804	86.541817
700.512573	84.053764
699.501099	96.396919
698.489502	84.022911
697.477661	76.595062
696.465698	106.225266
695.453491	88.916451
694.441101	66.675095
693.428589	98.759781
692.415833	96.273102
691.402893	98.723511
690.389771	81.431938
689.376465	69.081078
688.362976	93.735664
687.349304	73.988251
686.335449	88.769585
685.321411	81.357170
684.307190	123.245789
683.292725	103.507439
682.278137	98.560402
681.263367	96.078728
680.248352	91.134857
679.233215	103.431366
678.217834	88.639160
677.202332	93.546356
676.186584	91.067863
675.170654	73.825233
674.154541	71.351273
673.138306	88.557701
672.121826	91.000900
671.105164	73.770943
670.088318	90.967430
669.071289	110.615707
668.054016	90.933960
667.036621	93.374458
666.019043	88.443733
665.001282	85.971146
663.983276	83.499458
662.965149	88.394920
661.946777	100.653465
660.928223	80.998848
659.909546	80.983940
658.890625	103.051498
657.871521	90.766747
656.852234	95.655441
655.832764	76.019814
654.813110	68.650414
653.793274	80.894516
652.773254	73.526924
651.752991	80.864723
650.732605	93.099800
649.711975	97.981735
648.691223	75.921860
647.670227	88.151077
646.649048	97.927589
645.627747	90.566330
644.606201	92.996933
643.584473	92.979790
642.562561	102.748199
641.540466	88.053650
640.518127	61.137096
639.495667	100.246353
638.473022	107.561615
637.450134	85.544601
636.427063	83.085152
635.403870	85.513054
634.380432	85.497284
633.356812	80.596863
632.333008	75.698235
631.309021	87.891411
630.284851	100.080093
629.260498	82.977936
628.235901	82.962624
627.211182	100.024704
626.186218	100.006248
625.161133	97.549065
624.135803	99.969337
623.110291	87.761757
622.084595	92.620308
621.058716	99.913986
620.032654	82.840210
619.006409	80.388885
617.979919	77.938469
616.953308	90.099709
615.926453	92.517746
614.899414	90.066437
613.872253	107.086250
612.844849	107.066467
611.817261	111.912445
610.789490	94.864761
609.761475	97.279221
608.733337	77.808998
607.705017	85.087860
606.676453	82.641510
605.647705	85.056419
604.618774	89.900169
603.589722	99.600693
602.560425	94.724609
601.530884	87.421936
600.501221	94.689583
599.471375	97.099564
598.441284	126.206093
597.411011	94.637070
596.380615	84.914993
595.349976	101.879150
594.319153	92.159325
593.288147	87.292679
592.256897	101.822624
591.225525	101.803787
590.193970	113.902206
589.162170	138.111160
588.130188	130.817932
587.098022	121.105301
586.065674	92.022995
585.033142	84.742332
584.000427	96.830460
582.967468	108.914101
581.934387	84.695282
580.901062	101.615524
579.867554	118.529488
578.833862	111.251976
577.799988	99.141006
576.765930	111.210777
575.731628	106.355820
574.697205	118.419769
573.662537	111.148987
572.627747	118.375900
571.592712	101.446259
570.557434	118.332039
569.522034	106.237656
568.486450	111.046051
567.450623	130.334259
566.414673	115.831192
565.378479	118.222427
564.342102	98.902473
563.305542	125.414024
562.268799	135.036224
561.231812	151.887573
560.194702	149.448944
559.157349	139.781158
558.119812	154.212662
557.082092	161.411438
556.044189	139.703384
555.006042	146.902176
553.967773	144.467133
552.929260	127.588959
551.890625	117.937721
550.851746	146.793182
549.812683	156.389938
548.773376	129.899841
547.733948	146.711472
546.694275	153.898224
545.654419	144.252792
544.614441	129.803421
543.574158	144.199249
542.533752	136.963852
541.493164	148.950562
540.452332	216.178406
539.411316	194.524429
538.370178	196.889389
537.328735	192.051529
536.287170	223.218430
535.245422	235.175735
534.203430	254.326492
533.161255	280.666718
532.118896	239.841507
531.076355	258.980682
530.033630	232.559799
528.990723	249.296127
527.947571	258.836304
526.904236	258.788208
525.860718	268.323059
524.817017	234.739029
523.773132	208.352036
522.729004	198.735672
521.684692	234.608124
520.640198	234.564484
519.595520	236.913940
518.550659	227.299377
517.505615	198.550934
516.460327	205.689209
515.414856	198.477066
514.369202	179.313385
513.323364	169.718414
512.277283	188.806473
511.231079	174.434280
510.184631	164.845551
509.138000	152.871765
508.091187	160.007843
507.044159	136.100723
505.996948	150.399124
504.949554	131.276367
503.901947	157.502319
502.854126	131.227493
501.806152	124.046524
500.757965	143.103943
499.709564	140.692673
