#Wave		#Intensity
3200.600830	16.839409
3200.007080	58.937931
3199.413086	63.138241
3198.819092	42.085800
3198.224854	67.327103
3197.630615	63.109615
3197.036377	46.273388
3196.442139	46.266392
3195.847656	46.259399
3195.252930	33.638115
3194.658447	67.266052
3194.063721	67.255882
3193.468750	46.231430
3192.873779	75.639992
3192.278809	50.419033
3191.683838	42.009510
3191.088623	42.003155
3190.493164	50.396164
3189.897949	54.587585
3189.302490	83.968201
3188.706787	62.966625
3188.111328	67.154236
3187.515381	29.375536
3186.919678	62.938053
3186.323730	54.538059
3185.727783	62.919010
3185.131592	46.133625
3184.535400	50.319977
3183.939209	41.926968
3183.342773	92.225372
3182.746338	46.105709
3182.149902	58.671112
3181.553223	58.662231
3180.956543	54.463829
3180.359619	37.700020
3179.762695	54.447342
3179.165771	67.001968
3178.568604	54.430859
3177.971436	62.795330
3177.374268	50.228657
3176.776855	33.480701
3176.179443	79.504631
3175.581787	33.470566
3174.984131	54.381432
3174.386475	46.008091
3173.788574	50.183041
3173.190674	54.356728
3172.592773	62.709805
3171.994629	62.700306
3171.396484	75.228973
3170.798340	54.323803
3170.199951	62.671818
3169.601563	75.194786
3169.002930	41.768555
3168.404297	62.643337
3167.805664	79.336205
3167.206787	62.624359
3166.607910	50.091896
3166.008789	58.431690
3165.409912	54.249775
3164.810547	25.034563
3164.211426	62.576923
3163.612061	58.396275
3163.012695	33.364243
3162.413086	50.038780
3161.813477	79.216057
3161.213623	54.192245
3160.614014	50.016026
3160.013916	75.012665
3159.414063	41.667385
3158.813965	66.657707
3158.213867	62.482124
3157.613525	62.472652
3157.013184	54.134754
3156.412598	54.126545
3155.812256	58.281288
3155.211426	62.434765
3154.610840	37.455177
3154.010010	41.610550
3153.409180	66.566788
3152.808105	54.077309
3152.207031	79.024078
3151.605957	79.012085
3151.004639	16.631599
3150.403320	20.786346
3149.801758	78.976128
3149.200195	29.092054
3148.598633	45.709148
3147.996826	24.928480
3147.395020	37.387047
3146.793213	62.302284
3146.191162	45.681408
3145.589111	49.826702
3144.986816	66.425514
3144.384766	29.056753
3143.782227	74.706024
3143.179932	45.646751
3142.577393	95.428711
3141.974609	87.117340
3141.371826	53.921593
3140.769043	49.766220
3140.166260	49.758663
3139.563232	58.042961
3138.960205	20.726480
3138.356934	49.736000
3137.753662	62.160557
3137.150391	58.007710
3136.546875	66.284454
3135.943359	37.279343
3135.339600	66.264320
3134.735840	66.254257
3134.132080	53.823406
3133.528076	74.513390
3132.924072	49.668049
3132.320068	57.937252
3131.715820	16.550985
3131.111572	12.411353
3130.507080	28.955423
3129.902588	12.407581
3129.298096	45.487549
3128.693604	57.884449
3128.088867	49.607700
3127.483887	57.866856
3126.878906	49.592621
3126.273926	99.170166
3125.668945	41.314621
3125.063721	70.224182
3124.458252	53.692680
3123.853027	57.814095
3123.247559	41.289501
3122.641846	66.053162
3122.036133	66.043114
3121.430420	33.016537
3120.824707	20.632196
3120.218750	45.383930
3119.612549	61.877766
3119.006592	37.121014
3118.400391	45.363228
3117.793945	61.849537
3117.187500	61.840126
3116.581055	32.976383
3115.974609	70.064156
3115.367920	45.328732
3114.760986	49.442005
3114.154297	41.195400
3113.547363	53.545872
3112.940186	41.182865
3112.333008	32.941280
3111.725830	78.223633
3111.118408	28.814846
3110.510986	49.389362
3109.903564	49.381844
3109.295898	69.946968
3108.688232	69.936317
3108.080566	45.246021
3107.472656	49.351784
3106.864746	24.672134
3106.256592	74.005135
3105.648438	32.886166
3105.040039	65.762314
3104.431885	36.985668
3103.823486	45.197823
3103.214844	45.190941
3102.606201	65.722267
3101.997559	28.749113
3101.388672	53.383076
3100.779785	57.480713
3100.170898	16.420559
3099.561768	61.567715
3098.952637	65.662224
3098.343262	69.755486
3097.733887	65.642220
3097.124512	32.816109
3096.514893	77.926384
3095.905273	53.309929
3095.295410	49.201668
3094.685791	16.398056
3094.075684	49.186672
3093.465820	36.884384
3092.855713	57.366962
3092.245361	77.843300
3091.635254	73.735039
3091.024658	61.436501
3090.414307	77.807709
3089.803711	61.417774
3089.193115	90.065666
3088.582275	61.399048
3087.971436	24.555874
3087.360596	49.104259
3086.749512	73.645157
3086.138428	61.361607
3085.527100	89.983299
3084.915771	53.163841
3084.304443	53.155735
3083.692871	44.971069
3083.081299	49.051865
3082.469482	32.696255
3081.857910	44.950493
3081.245850	65.372559
3080.634033	69.447754
3080.021973	36.760849
3079.409668	53.090900
3078.797607	36.749630
3078.185059	53.074699
3077.572754	61.230694
3076.960205	44.895657
3076.347656	36.727203
3075.734863	85.683731
3075.122070	44.875107
3074.509033	57.105053
3073.895996	69.331268
3073.282959	65.242996
3072.669922	44.847713
3072.056641	85.605293
3071.443115	52.985661
3070.829834	57.052769
3070.216064	32.596603
3069.602539	24.443722
3068.988770	57.026638
3068.375000	52.945221
3067.760986	57.009224
3067.146973	65.143448
3066.532715	28.495907
3065.918701	56.983109
3065.304199	40.696003
3064.689941	81.379578
3064.075439	48.820286
3063.460693	44.745094
3062.846191	69.140945
3062.231445	93.529335
3061.616455	32.526974
3061.001465	52.848255
3060.386475	77.227959
3059.771240	65.024132
3059.156006	73.140968
3058.540771	56.878727
3057.925293	44.683598
3057.309814	77.168961
3056.694092	52.791748
3056.078369	44.663113
3055.462646	56.835274
3054.846680	64.944664
3054.230713	68.993156
3053.614502	24.346804
3052.998291	48.686165
3052.382080	77.074638
3051.765625	48.671276
3051.149170	60.829792
3050.532715	60.820492
3049.916016	77.027512
3049.299316	48.641514
3048.682373	60.792591
3048.065430	32.417755
3047.448486	36.464397
3046.831299	76.968620
3046.214111	60.755405
3045.596680	32.397926
3044.979248	24.294727
3044.361816	56.679024
3043.744141	56.670353
3043.126465	56.661682
3042.508545	76.886230
3041.890869	56.644341
3041.272705	80.908104
3040.654785	44.492649
3040.036621	84.927513
3039.418213	76.827415
3038.799805	80.858589
3038.181396	28.296173
3037.562988	64.667068
3036.944336	60.616096
3036.325439	28.283180
3035.706543	52.517864
3035.087646	60.588257
3034.468750	60.578983
3033.849609	32.303844
3033.230469	80.747238
3032.611084	32.293949
3031.991699	84.758636
3031.372070	68.603630
3030.752441	76.662903
3030.132813	52.445530
3029.513184	60.504803
3028.893066	84.693748
3028.273193	60.486267
3027.653076	80.636002
3027.032959	68.530098
3026.412598	36.275082
3025.792480	36.269524
3025.171875	36.263969
3024.551270	80.574249
3023.930664	52.365234
3023.310059	44.302254
3022.689209	76.510345
3022.068115	72.472382
3021.447266	24.153757
3020.826172	44.275101
3020.204834	64.390274
3019.583496	76.451729
3018.962158	112.648438
3018.340576	92.518456
3017.718994	68.372726
3017.097412	76.404861
3016.475586	72.372452
3015.853760	84.421577
3015.231689	52.252964
3014.609619	64.301476
3013.987549	52.236938
3013.365234	24.105658
3012.742920	76.322876
3012.120361	60.245663
3011.497803	76.299469
3010.875244	72.272614
3010.252441	52.188881
3009.629639	56.194790
3009.006836	60.199467
3008.383789	40.126820
3007.760498	32.096531
3007.137451	56.160309
3006.514160	60.162525
3005.890625	28.071537
3005.267090	48.115250
3004.643555	24.053932
3004.019775	48.100483
3003.395996	80.155167
3002.772217	60.107147
3002.148193	80.130562
3001.524170	56.082779
3000.899902	36.047680
3000.275635	8.009366
2999.651367	80.081360
2999.026855	48.041439
2998.402344	72.051094
2997.777588	44.024464
2997.152832	56.022530
2996.528076	56.013927
2995.903076	44.004185
2995.278076	19.998829
2994.653076	75.983879
2994.027832	71.973671
2993.402344	51.973000
2992.777100	31.978472
2992.151367	47.960339
2991.525879	35.964729
2990.900146	71.918404
2990.274414	27.963970
2989.648438	19.971195
2989.022461	51.917130
2988.396240	55.902164
2987.770264	51.901176
2987.143799	47.901413
2986.517578	51.885223
2985.891113	59.858364
2985.264404	79.798882
2984.637695	27.925316
2984.010986	35.898457
2983.384033	75.773987
2982.757080	55.824879
2982.130127	83.724442
2981.502930	59.793976
2980.875732	51.813480
2980.248291	47.820473
2979.620850	51.797546
2978.993408	67.724838
2978.365723	79.664024
2977.738037	47.791061
2977.110107	71.675568
2976.482178	51.757725
2975.854248	51.749763
2975.226074	35.821247
2974.597900	75.611000
2973.969482	103.451767
2973.341309	87.522644
2972.712646	63.643036
2972.083984	75.564476
2971.455322	75.552849
2970.826660	63.613663
2970.197754	95.405807
2969.568604	79.492607
2968.939697	79.480370
2968.310547	83.441544
2967.681152	75.483109
2967.051758	47.666206
2966.422363	95.317734
2965.792725	47.651531
2965.163086	71.466293
2964.533203	59.546074
2963.903564	95.259048
2963.273438	71.433289
2962.643311	55.550667
2962.013184	95.215050
2961.383057	107.100433
2960.752686	59.491077
2960.122314	51.550995
2959.491699	71.367302
2958.861084	75.320549
2958.230225	43.599918
2957.599609	67.371315
2956.968506	47.548893
2956.337646	83.197746
2955.706299	59.417805
2955.075195	39.605766
2954.443848	63.359463
2953.812500	51.471630
2953.180908	55.422443
2952.549316	75.204582
2951.917725	67.277939
2951.285889	75.181404
2950.653809	75.169815
2950.021973	63.291142
2949.389893	63.281384
2948.757568	86.998489
2948.125244	71.169609
2947.492920	75.111893
2946.860352	75.100311
2946.227783	71.136696
2945.595215	67.174301
2944.962402	75.065582
2944.329590	79.004219
2943.696533	75.042427
2943.063477	78.979851
2942.430420	67.122520
2941.797119	71.059937
2941.163574	90.784805
2940.530273	86.824242
2939.896729	90.756798
2939.262939	78.906784
2938.629150	67.060417
2937.995361	74.938316
2937.361328	98.587830
2936.727295	90.686806
2936.093262	94.615112
2935.458984	86.717133
2934.824707	98.526993
2934.190186	74.868958
2933.555664	66.977676
2932.921143	122.116905
2932.286377	70.895645
2931.651367	106.327057
2931.016602	98.435776
2930.381592	118.104698
2929.746338	106.277817
2929.111084	98.390198
2928.475830	106.245003
2927.840332	66.884674
2927.204834	98.344627
2926.569336	94.396263
2925.933594	114.044533
2925.297607	102.231033
2924.661865	102.215240
2924.025879	90.407211
2923.389648	102.183670
2922.753418	121.815552
2922.117188	90.365318
2921.480713	109.992958
2920.844238	117.831390
2920.207764	102.104759
2919.571045	94.235985
2918.934082	102.073212
2918.297363	117.758583
2917.660156	109.891022
2917.023193	98.101822
2916.385986	90.239731
2915.748779	117.685799
2915.111328	105.900848
2914.473877	78.432945
2913.836182	101.947067
2913.198486	98.010880
2912.560791	101.915550
2911.922852	109.738243
2911.284912	129.314362
2910.646729	117.540329
2910.008545	113.604752
2909.370361	109.670387
2908.731934	97.904846
2908.093506	152.707932
2907.455078	133.109406
2906.816406	117.431313
2906.177490	105.671829
2905.538574	109.568649
2904.899658	121.289383
2904.260498	89.974976
2903.621338	140.808609
2902.982178	129.054596
2902.342773	132.944763
2901.703369	86.009773
2901.063721	121.176834
2900.424072	164.149658
2899.784424	82.062126
2899.144531	144.563278
2898.504639	105.475792
2897.864502	117.177185
2897.224365	109.348450
2896.583984	140.569092
2895.943848	117.122780
2895.303223	136.622086
2894.662842	132.698059
2894.021973	113.166115
2893.381348	132.656967
2892.740479	152.141785
2892.099609	124.814957
2891.458496	136.495209
2890.817383	132.574814
2890.176025	140.351593
2889.534668	167.616226
2888.893311	120.820885
2888.251709	124.699013
2887.610107	132.472183
2886.968262	159.721115
2886.326416	132.431137
2885.684570	171.354919
2885.042480	163.540726
2884.400391	147.942490
2883.758057	198.523621
2883.115723	175.140762
2882.473389	179.005035
2881.830811	213.994583
2881.188232	217.851624
2880.545410	233.376282
2879.902588	276.119141
2879.259766	268.299530
2878.616699	276.033539
2877.973633	268.216370
2877.330322	190.442947
2876.687012	260.361206
2876.043457	217.581604
2875.399902	190.354385
2874.756348	244.703400
2874.112549	186.411774
2873.468750	198.031799
2872.824707	225.177704
2872.180664	186.325058
2871.536621	159.127975
2870.892334	178.506134
2870.248047	147.438705
2869.603760	182.330124
2868.958984	143.514206
2868.314453	162.882751
2867.669678	158.979919
2867.024902	135.693512
2866.379883	178.312363
2865.734863	174.408936
2865.089844	182.132187
2864.444580	170.480255
2863.799316	197.571457
2863.153809	182.047394
2862.508301	178.146393
2861.862549	154.885864
2861.216797	154.861816
2860.571045	209.031006
2859.925049	181.906143
2859.279053	154.789703
2858.632813	174.111374
2857.986572	216.638306
2857.340332	201.132904
2856.693848	201.101669
2856.047363	197.203690
2855.400635	204.905350
2854.753906	189.411377
2854.107178	231.896271
2853.460205	193.216873
2852.813232	208.641815
2852.166016	266.556458
2851.518799	208.576996
2850.871338	220.130402
2850.223877	258.709564
2849.576416	277.973053
2848.928711	270.209595
2848.281006	258.588989
2847.633301	231.536240
2846.985352	254.650284
2846.337158	258.468445
2845.688965	273.856842
2845.040771	266.101196
2844.392578	269.915771
2843.743896	304.571869
2843.095459	246.703415
2842.446777	281.352325
2841.798096	296.722778
2841.149170	258.147186
2840.500244	223.435959
2839.851074	234.956451
2839.202148	177.152725
2838.552734	242.584488
2837.903320	188.647476
2837.253906	200.166183
2836.604492	138.555038
2835.954834	238.585449
2835.304932	192.377701
2834.655029	146.184311
2834.005127	134.622498
2833.354980	157.676102
2832.704834	123.045128
2832.054688	138.404236
2831.404297	119.162872
2830.753906	99.927505
2830.103271	146.025162
2829.452637	103.738579
2828.801758	157.504440
2828.150879	122.911156
2827.500000	119.051651
2826.848877	126.712677
2826.197754	115.175407
2825.546387	88.287399
2824.895020	99.787613
2824.243408	76.747749
2823.591797	72.899010
2822.940186	76.723854
2822.288330	111.232269
2821.636475	115.049942
2820.984619	69.019218
2820.332520	84.343681
2819.680176	76.664131
2819.028076	76.652191
2818.375488	103.464348
2817.723145	88.122566
2817.070557	72.785561
2816.417725	80.434669
2815.764893	107.229515
2815.112061	95.725723
2814.458984	107.196106
2813.805908	118.662910
2813.152832	91.853745
2812.499512	99.492714
2811.845947	84.173027
2811.192383	110.938057
2810.538818	84.146790
2809.885010	72.660904
2809.231201	99.415207
2808.577393	99.399712
2807.923340	84.094337
2807.269287	87.903099
2806.614990	129.923462
2805.960693	137.544556
2805.306152	99.322250
2804.651611	76.389816
2803.997070	91.653488
2803.342285	91.639198
2802.687500	114.531128
2802.032471	80.159286
2801.377441	76.330269
2800.722412	99.213875
2800.067139	91.567757
2799.411621	91.553467
2798.756348	95.353317
2798.100586	76.270752
2797.445068	72.445915
2796.789307	87.683998
2796.133301	83.858566
2795.477539	99.090111
2794.821289	83.832397
2794.165283	133.348907
2793.509033	83.806236
2792.852539	99.028275
2792.196045	99.012817
2791.539551	98.997360
2790.882813	95.174911
2790.226074	83.740845
2789.569092	129.397461
2788.912109	79.909485
2788.255127	98.920113
2787.597900	125.532845
2786.940430	60.854904
2786.283203	136.902161
2785.625488	106.462822
2784.968018	102.644547
2784.310303	83.623238
2783.652588	95.011566
2782.994629	87.396988
2782.336426	98.781158
2781.678467	72.174957
2781.020264	91.154121
2780.361816	117.722343
2779.703369	117.703957
2779.044922	121.481873
2778.386230	106.280029
2777.727539	121.443909
2777.068604	94.863228
2776.409668	75.878723
2775.750732	75.866867
2775.091553	98.611511
2774.432373	106.180412
2773.772949	79.622856
2773.113525	90.983330
2772.453857	106.130623
2771.794189	98.534454
2771.134521	83.362274
2770.474609	109.869453
2769.814697	102.276253
2769.154541	94.685432
2768.494385	106.031097
2767.833984	98.442047
2767.173584	113.569214
2766.513184	64.345825
2765.852539	128.671524
2765.191895	132.435257
2764.531006	121.064720
2763.870117	83.218979
2763.209229	132.373123
2762.548096	94.537430
2761.886719	109.646263
2761.225586	56.704712
2760.563965	113.391678
2759.902588	64.245232
2759.240967	117.134727
2758.579102	113.338448
2757.917236	117.098068
2757.255371	117.079742
2756.593262	94.404366
2755.931152	113.267509
2755.269043	94.374817
2754.606689	113.232048
2753.944092	128.309570
2753.281494	86.784058
2752.618896	120.724129
2751.956055	132.021347
2751.293213	113.143433
2750.630371	101.813141
2749.967285	109.337730
2749.303955	113.090279
2748.640625	150.763428
2747.977295	124.360344
2747.313721	128.108765
2746.650146	109.252129
2745.986572	105.468285
2745.322754	135.580841
2744.658691	139.325150
2743.994873	112.948631
2743.330566	116.695297
2742.666504	94.094368
2742.002197	105.369171
2741.337646	124.165634
2740.673096	101.574142
2740.008545	165.502289
2739.343750	109.063957
2738.678955	101.526390
2738.013916	101.510475
2737.348877	67.663040
2736.683594	105.237122
2736.018311	120.252136
2735.353027	116.475990
2734.687500	116.457733
2734.021973	123.951691
2733.356201	112.665688
2732.690430	131.422684
2732.024658	116.384697
2731.358643	150.150253
2730.692383	135.114029
2730.026367	108.824783
2729.359863	131.319656
2728.693604	131.299057
2728.027100	105.022766
2727.360352	112.506737
2726.693604	108.739449
2726.026855	134.965714
2725.359863	112.453789
2724.692871	127.427628
2724.025635	123.660347
2723.358398	134.881027
2722.691162	134.859848
2722.023682	116.111092
2721.355957	142.307388
2720.688477	153.518082
2720.020508	119.800179
2719.352783	89.836029
2718.684814	112.277405
2718.016602	127.227745
2717.348389	157.139008
2716.680176	101.002075
2716.011719	112.206902
2715.343262	138.366776
2714.674561	127.127884
2714.005859	115.892517
2713.337158	130.825836
2712.668213	97.169640
2711.999023	164.415100
2711.329834	112.083595
2710.660645	134.479187
2709.991455	115.783325
2709.321777	138.171295
2708.652344	138.149582
2707.982666	134.394684
2707.312988	115.710571
2706.643066	104.496353
2705.972900	115.674210
2705.302979	89.540154
2704.632813	123.098358
2703.962402	164.105347
2703.291992	108.143341
2702.621582	115.583328
2701.950928	126.748886
2701.280273	130.456284
2700.609375	149.069443
2699.938477	85.701454
2699.267334	134.120316
2698.596191	163.899048
2697.925049	126.629356
2697.253662	107.990402
2696.582031	152.652069
2695.910645	137.737518
2695.239014	119.105606
2694.567139	174.908844
2693.895264	148.835175
2693.223145	148.811768
2692.551270	115.310974
2691.878906	104.135460
2691.206543	137.585922
2690.534180	141.282227
2689.861816	118.955780
2689.189209	130.087418
2688.516357	137.499344
2687.843506	115.184013
2687.170654	118.880913
2686.497559	107.718872
2685.824463	129.985077
2685.151123	137.391159
2684.477783	115.093391
2683.804199	115.075272
2683.130615	133.614761
2682.457031	118.749977
2681.783203	118.731277
2681.109375	118.712578
2680.435303	118.693886
2679.761230	137.218185
2679.086914	103.824440
2678.412598	133.467545
2677.738281	111.205429
2677.063721	122.306709
2676.389160	103.759041
2675.714355	92.627403
2675.039551	129.657944
2674.364502	125.933586
2673.689453	122.210396
2673.014404	151.813232
2672.339111	99.958817
2671.663574	140.660614
2670.988037	122.133385
2670.312500	129.514984
2669.636719	88.796280
2668.960938	118.376381
2668.285156	107.261688
2667.609131	118.339066
2666.932861	125.715431
2666.256592	147.877197
2665.580322	121.979446
2664.903809	96.089867
2664.227295	125.636169
2663.550781	110.837959
2662.874023	129.290558
2662.197021	132.963608
2661.520020	184.642548
2660.843018	158.767548
2660.165771	118.133957
2659.488525	151.335266
2658.811035	132.858780
2658.133545	143.907639
2657.455811	140.195572
2656.778076	114.352036
2656.100342	151.215927
2655.422363	129.066391
2654.744385	132.733063
2654.066162	129.025665
2653.387939	121.633575
2652.709473	121.614372
2652.031006	140.018692
2651.352539	151.048950
2650.673828	132.607422
2649.994873	132.586487
2649.316162	125.200798
2648.636963	147.271805
2647.958008	136.204910
2647.278809	161.947830
2646.599365	154.562164
2645.919922	117.743050
2645.240479	106.687790
2644.560791	125.062485
2643.880859	150.786819
2643.201172	84.574371
2642.520996	106.620407
2641.841064	147.039398
2641.160889	117.612938
2640.480469	146.992950
2639.800049	124.924263
2639.119629	161.641159
2638.438965	124.884789
2637.758301	110.175049
2637.077393	154.220703
2636.396484	143.182297
2635.715332	124.805870
2635.034180	110.105423
2634.353027	154.123230
2633.671631	121.077682
2632.989990	146.737625
2632.308350	132.042984
2631.626709	135.689392
2630.944824	143.001343
2630.262939	117.315887
2629.581055	117.297340
2628.898926	120.943756
2628.216553	117.260246
2627.534180	146.552124
2626.851807	153.855392
2626.169189	157.493713
2625.486572	164.792923
2624.803711	146.459442
2624.120850	157.418991
2623.437988	142.752777
2622.754883	142.730194
2622.071533	146.366776
2621.388184	160.977982
2620.704834	135.346436
2620.021240	128.010147
2619.337646	146.274170
2618.653809	131.625916
2617.969971	138.916473
2617.286133	179.100800
2616.602051	127.908890
2615.917725	146.158447
2615.233398	168.055603
2614.549072	157.070587
2613.864502	138.784592
2613.179932	120.504387
2612.495117	146.042801
2611.810303	175.223602
2611.125488	156.946289
2610.440430	135.025421
2609.755127	164.194107
2609.069824	134.982666
2608.384521	167.789703
2607.698975	189.645264
2607.013428	149.504318
2606.327637	164.064117
2605.641846	131.230499
2604.956055	102.051994
2604.270020	131.188919
2603.583740	138.455246
2602.897461	160.291199
2602.211182	152.981003
2601.524658	138.389450
2600.838135	112.878761
2600.151367	152.908279
2599.464600	134.683563
2598.777832	156.499329
2598.090820	156.474518
2597.403564	152.811356
2596.716309	127.322609
2596.029053	152.762909
2595.341553	152.738693
2594.654053	178.166885
2593.966309	112.699951
2593.278564	152.666046
2592.590820	109.029884
2591.902832	159.885132
2591.214600	148.960251
2590.526367	152.569229
2589.838135	188.865265
2589.149658	119.837791
2588.461182	163.389252
2587.772461	170.623917
2587.083740	148.818527
2586.394775	152.424057
2585.705811	152.399872
2585.016846	134.235733
2584.327637	166.861191
2583.638184	148.700500
2582.948975	170.434494
2582.259277	166.781754
2581.569824	155.879944
2580.879883	170.353348
2580.190186	155.830460
2579.500244	144.935547
2578.810059	181.140686
2578.119873	170.245209
2577.429688	152.109863
2576.739258	170.191147
2576.048584	137.579514
2575.358154	177.376984
2574.667236	144.774536
2573.976563	130.276398
2573.285645	119.401062
2572.594482	162.793777
2571.903320	180.853241
2571.212158	126.577156
2570.520752	141.020706
2569.829102	173.536377
2569.137451	130.131607
2568.445801	155.410278
2567.753906	177.067291
2567.062012	151.747849
2566.370117	144.498795
2565.677979	144.475830
2564.985596	187.788727
2564.293213	158.872910
2563.600830	166.067993
2562.908203	173.260803
2562.215332	144.361053
2561.522705	180.422623
2560.829590	165.962433
2560.136719	133.470291
2559.443604	180.336578
2558.750244	169.489441
2558.056885	158.645737
2557.363525	173.040543
2556.669922	126.155334
2555.976074	187.400970
2555.282227	140.528381
2554.588379	172.930496
2553.894287	147.687958
2553.200195	180.078629
2552.505859	180.049973
2551.811523	147.617493
2551.117188	179.992691
2550.422607	172.765488
2549.727783	125.954788
2549.032959	161.916107
2548.338135	129.512268
2547.643066	158.267578
2546.947998	158.242386
2546.252686	190.579819
2545.557373	125.834564
2544.861816	172.545639
2544.166260	158.141663
2543.470703	168.897156
2542.774902	125.754456
2542.078857	140.104080
2541.382813	186.775696
2540.686768	132.876923
2539.990479	172.353439
2539.294189	150.785233
2538.597656	129.223907
2537.901123	165.093140
2537.204346	161.478424
2536.507568	172.216217
2535.810791	150.665192
2535.113770	175.748047
2534.416504	179.306183
2533.719238	157.764297
2533.021973	175.664063
2532.324463	182.804901
2531.626953	154.105057
2530.929199	143.330704
2530.231445	179.134827
2529.533447	136.120758
2528.835449	179.077728
2528.137451	189.792130
2527.439209	186.181458
2526.740723	178.992096
2526.042236	182.542831
2525.343750	150.305435
2524.645020	135.968948
2523.946289	150.257507
2523.247314	196.734406
2522.548340	171.668106
2521.849121	160.913177
2521.149902	150.161682
2520.450684	193.034225
2519.751221	182.281021
2519.051514	153.663406
2518.351807	150.065903
2517.652100	135.752243
2516.952148	157.161743
2516.252197	178.564392
2515.552002	149.970154
2514.851807	178.507416
2514.151367	203.465973
2513.450928	171.312424
2512.750244	174.853531
2512.049561	149.850540
2511.348877	181.932327
2510.647949	210.437134
2509.946777	178.308090
2509.245605	167.582840
2508.544434	149.730972
2507.843018	206.738342
2507.141602	203.141449
2506.439941	192.419067
2505.738281	174.574600
2505.036377	121.114052
2504.334473	142.464371
2503.632568	185.174103
2502.930420	145.979340
2502.228027	181.555054
2501.525635	145.932709
2500.823242	188.614578
2500.120605	145.886093
2499.417969	145.862778
2498.715088	170.738907
2498.012207	174.268112
2497.309082	174.240265
2496.605957	152.880295
2495.902588	195.513306
2495.199219	199.036285
2494.495605	156.360657
2493.791992	184.760330
2493.088379	170.520737
2492.384521	202.461014
2491.680664	170.466232
2490.976563	138.481674
2490.272461	184.612701
2489.568115	191.682541
2488.863770	184.553680
2488.159180	177.427094
2487.454590	195.138580
2486.749756	177.370346
2486.044922	159.607788
2485.339844	198.591248
2484.634766	191.468079
2483.929688	173.711761
2483.224365	191.406830
2482.519043	170.112183
2481.813477	209.062775
2481.107666	184.229233
2480.402100	208.995880
2479.696045	148.752930
2478.990234	184.140823
2478.284180	155.786530
2477.577881	187.621918
2476.871582	198.210312
2476.165039	201.717484
2475.458496	187.531845
2474.751953	205.190689
2474.045166	176.860199
2473.338379	187.441803
2472.631348	205.092148
2471.924072	144.955719
2471.217041	169.677094
2470.509521	212.062408
2469.802246	204.960831
2469.094482	219.060974
2468.386963	190.764481
2467.679199	151.880722
2466.971191	201.298019
2466.263184	169.486969
2465.554932	190.642288
2464.846680	176.492371
2464.138428	176.464096
2463.429932	162.320953
2462.721436	162.294937
2462.012695	201.072388
2461.303955	141.080811
2460.594971	193.955032
2459.885986	183.346283
2459.176758	155.114304
2458.467529	197.386551
2457.758057	172.685547
2457.048584	197.323288
2456.338867	190.245514
2455.629150	165.557526
2454.919434	183.140656
2454.209473	140.854843
2453.499512	186.602737
2452.789307	176.012085
2452.078857	197.101929
2451.368408	179.474762
2450.657959	179.445969
2449.947266	182.935181
2449.236572	225.114868
2448.525879	200.460770
2447.814697	175.814575
2447.103760	214.459381
2446.392578	210.909805
2445.681152	210.875961
2444.969727	179.215820
2444.258301	175.673584
2443.546631	193.209930
2442.834717	193.178925
2442.122803	196.659714
2441.410889	235.251526
2440.698730	203.617889
2439.986572	214.115479
2439.274170	175.476318
2438.561768	171.939178
2437.849121	196.470383
2437.136475	175.391815
2436.423584	164.841843
2435.710693	199.882477
2434.997803	217.381104
2434.284424	203.323868
2433.571289	206.796234
2432.857910	206.763016
2432.144287	199.722031
2431.430908	175.166611
2430.717041	182.144012
2430.003174	220.639038
2429.289307	238.111816
2428.575195	234.572479
2427.861084	189.028046
2427.146729	202.997498
2426.432373	202.964874
2425.717773	202.932266
2425.003174	178.411758
2424.288330	213.360168
2423.573486	188.845856
2422.858643	209.794998
2422.143555	248.217514
2421.428223	209.727554
2420.712891	174.744873
2419.997559	185.199783
2419.281982	206.132645
2418.566162	195.619873
2417.850586	213.051666
2417.134521	171.112350
2416.418457	192.033997
2415.702393	167.566345
2414.986084	181.501007
2414.269775	230.329620
2413.553223	240.760422
2412.836670	195.368332
2412.120117	226.730331
2411.403076	205.768265
2410.686279	184.812943
2409.969238	202.215591
2409.251953	174.295731
2408.534668	181.238388
2407.817383	188.178818
2407.099854	250.864700
2406.382080	205.536606
2405.664307	184.604858
2404.946533	226.365738
2404.228516	219.365326
2403.510498	215.848587
2402.792236	198.409500
2402.073975	177.495712
2401.355469	229.663345
2400.636963	191.355301
2399.918213	187.845856
2399.199463	219.118210
2398.480469	236.470459
2397.761475	212.093750
2397.042480	177.295731
2396.323242	170.315506
2395.603760	236.318146
2394.884277	246.704208
2394.164795	166.759079
2393.445068	204.941666
2392.725098	180.597458
2392.005127	197.930695
2391.285156	201.370712
2390.564941	204.809616
2389.844727	229.072144
2389.124268	242.916138
2388.403809	201.240936
2387.683105	215.084946
2386.962402	180.364746
2386.241455	215.015610
2385.520508	197.643784
2384.799316	190.678162
2384.078125	169.849518
2383.356689	232.205780
2382.635254	214.842346
2381.913818	211.343063
2381.192139	197.452652
2380.470215	218.201950
2379.748291	242.407501
2379.026367	200.819534
2378.304199	218.096375
2377.581787	193.832184
2376.859375	214.565292
2376.136963	190.309464
2375.414307	207.576843
2374.691650	228.297684
2373.968750	224.802338
2373.245850	248.971649
2372.522705	179.783844
2371.799316	200.495773
2371.076172	210.832199
2370.352783	210.798172
2369.629150	193.488403
2368.905518	217.639313
2368.181641	214.150146
2367.457764	248.650345
2366.733643	234.798523
2366.009521	182.975189
2365.285400	207.108276
2364.561035	262.294769
2363.836426	227.745529
2363.111816	231.158890
2362.387207	231.121552
2361.662354	244.880295
2360.937256	206.907669
2360.212158	234.457474
2359.487061	241.314301
2358.761719	227.488159
2358.036377	203.327774
2357.310791	234.306000
2356.584961	223.932785
2355.859375	223.896606
2355.133301	206.640396
2354.407471	206.606995
2353.681152	237.559647
2352.955078	220.309570
2352.228516	230.599304
2351.502197	237.444473
2350.775635	282.134766
2350.048828	258.008392
2349.322021	213.252441
2348.594971	233.851959
2347.867920	202.868164
2347.140869	240.652115
2346.413330	199.365234
2345.686035	223.390411
2344.958496	226.790512
2344.230713	240.496490
2343.502930	216.411819
2342.775146	230.115036
2342.047119	264.417786
2341.319092	236.907471
2340.590820	219.704712
2339.862305	236.830826
2339.133789	247.087830
2338.405273	233.322968
2337.676514	250.438538
2336.947754	222.957123
2336.218750	260.646149
2335.489746	236.600967
2334.760498	226.277328
2334.031250	243.380157
2333.301758	243.340759
2332.572266	233.021027
2331.842529	212.425949
2331.112793	246.648270
2330.382813	222.632523
2329.652832	202.049103
2328.922607	236.256454
2328.192383	225.947830
2327.462158	253.294418
2326.731689	208.762939
2326.000977	253.212387
2325.270264	263.435059
2324.539307	232.606277
2323.808350	229.148468
2323.077393	259.887482
2322.346191	239.331268
2321.614746	232.455566
2320.883301	259.761200
2320.151855	215.293457
2319.420166	228.925781
2318.688232	232.304932
2317.956299	273.255615
2317.224365	249.305344
2316.492188	228.777405
2315.760010	225.326279
2315.027588	249.184128
2314.295166	259.382507
2313.562500	204.742462
2312.829590	259.298401
2312.096924	225.143677
2311.363770	259.214325
2310.630615	221.660507
2309.897461	235.263000
2309.164063	293.178772
2308.430664	231.778183
2307.697021	265.820099
2306.963379	207.851212
2306.229492	248.699631
2305.495605	245.252991
2304.761719	262.241882
2304.027344	224.742294
2303.293213	245.133636
2302.558838	248.497940
2301.824219	245.054077
2301.089600	227.999435
2300.354736	227.962433
2299.619873	238.131042
2298.885010	251.697678
2298.149658	224.450668
2297.414551	289.018341
2296.679199	258.374451
2295.943604	203.946701
2295.208008	251.493423
2294.472412	275.238647
2293.736572	268.399048
2293.000488	288.736877
2292.264404	264.915527
2291.528320	203.748077
2290.791992	220.691223
2290.055420	230.839478
2289.318848	247.772705
2288.582275	234.158081
2287.845459	240.906128
2287.108398	240.866989
2286.371582	227.260086
2285.634277	295.050964
2284.896973	244.140427
2284.159668	223.759033
2283.422119	284.737946
2282.684570	250.799789
2281.946777	210.095398
2281.208740	254.106354
2280.470703	271.002716
2279.732666	257.410736
2278.994385	240.436722
2278.256104	277.642334
2277.517578	216.661224
2276.779053	260.628143
2276.040283	260.585754
2275.301514	294.380188
2274.562500	240.202240
2273.823486	267.223816
2273.084229	301.000641
2272.344971	246.848007
2271.605469	267.093445
2270.865967	283.951874
2270.126221	297.425018
2269.386475	270.342377
2268.646484	226.374908
2267.906494	266.876221
2267.166260	263.455170
2266.426025	303.937256
2265.685547	283.628632
2264.945068	266.702545
2264.204346	297.038025
2263.463623	286.865021
2262.722656	273.321014
2261.981689	266.528931
2261.240723	296.844666
2260.499268	273.187531
2259.758057	279.887329
2259.016602	256.240631
2258.274902	296.651367
2257.533203	283.121094
2256.791260	266.225281
2256.049316	262.812531
2255.307129	256.032043
2254.564941	282.936707
2253.822754	266.051880
2253.080322	313.149292
2252.337646	262.598572
2251.594971	259.189667
2250.852051	272.609650
2250.109131	279.295227
2249.366211	255.698532
2248.623047	282.568115
2247.879639	258.978577
2247.136230	258.936340
2246.392578	292.516754
2245.648926	238.681671
2244.905273	258.809753
2244.161377	258.767548
2243.417236	305.766357
2242.673096	262.042725
2241.928955	282.153839
2241.184570	278.749390
2240.439941	261.914551
2239.695313	335.733124
2238.950439	255.115555
2238.205566	288.636322
2237.460693	261.743713
2236.715576	265.056183
2235.970215	315.331848
2235.224854	288.448029
2234.479492	274.986969
2233.733887	278.295044
2232.988037	288.306854
2232.242188	224.574509
2231.496338	278.158844
2230.750244	268.061157
2230.003906	274.717834
2229.257568	274.673004
2228.511230	288.024689
2227.764648	271.234772
2227.017822	294.626709
2226.270996	271.146210
2225.523926	297.877472
2224.776855	261.018524
2224.029785	267.667603
2223.282471	270.969177
2222.534912	280.959198
2221.787354	277.569092
2221.039795	247.430832
2220.291992	203.929932
2219.543945	324.229065
2218.795898	260.677704
2218.047852	267.318054
2217.299561	307.365540
2216.551025	293.953796
2215.802490	293.905762
2215.053955	313.893494
2214.305176	253.744766
2213.556152	293.761719
2212.807129	260.337158
2212.058105	250.283264
2211.308838	296.954254
2210.559326	250.201462
2209.809814	293.521729
2209.060303	303.478516
2208.310547	296.760132
2207.560547	283.376282
2206.810547	319.996155
2206.060303	283.283600
2205.310059	289.901703
2204.559814	286.522614
2203.809326	303.131348
2203.058594	303.081757
2202.307861	283.052032
2201.557129	299.653137
2200.806152	279.630524
2200.054932	309.540283
2199.303711	269.555481
2198.552246	266.184082
2197.800781	289.427826
2197.049316	302.685333
2196.297607	345.869476
2195.545654	299.261139
2194.793701	319.159637
2194.041504	289.191101
2193.289307	312.408203
2192.537109	299.065277
2191.784668	312.305939
2191.031982	275.714355
2190.279297	295.597107
2189.526367	332.077209
2188.773438	338.663269
2188.020508	331.968445
2187.267090	311.999237
2186.513916	298.673767
2185.760498	308.579010
2185.006836	288.623413
2184.253174	328.379730
2183.499268	321.693085
2182.745361	305.061005
2181.991211	281.803650
2181.237061	328.164612
2180.482666	328.110840
2179.728271	318.115967
2178.973877	304.811157
2178.218994	344.512695
2177.464355	294.775024
2176.709229	324.530548
2175.954346	341.032318
2175.198975	311.182373
2174.443848	330.990814
2173.688232	294.533539
2172.932861	281.249969
2172.177002	317.594940
2171.421387	301.004181
2170.665283	281.111633
2169.909424	304.212128
2169.153076	330.611115
2168.396729	357.001434
2167.640381	353.637878
2166.883789	294.099152
2166.127197	310.570618
2165.370361	323.733276
2164.613525	307.165863
2163.856445	280.696930
2163.099365	323.573975
2162.342041	333.424561
2161.584473	320.167084
2160.826904	323.414703
2160.069336	273.867493
2159.311523	326.607635
2158.553711	260.583527
2157.795654	323.202454
2157.037354	293.472412
2156.279053	273.642822
2155.520752	323.043304
2154.762207	316.398621
2154.003662	349.299469
2153.244873	339.357910
2152.485840	342.596375
2151.726807	332.659149
2150.967773	345.776978
2150.208252	325.964752
2149.448975	329.203247
2148.689453	329.149170
2147.929688	338.967957
2147.169922	329.041046
2146.410156	328.986969
2145.650146	322.354279
2144.889893	342.034027
2144.129639	328.824829
2143.369141	286.030609
2142.608643	322.142456
2141.847900	282.649963
2141.087158	318.750488
2140.326416	410.693420
2139.565186	351.495789
2138.804199	377.713745
2138.042725	308.689178
2137.281494	308.638428
2136.519775	311.870514
2135.758301	315.101563
2134.996338	331.458588
2134.234619	341.247772
2133.472412	347.753021
2132.710449	360.816437
2131.947998	344.359039
2131.185547	341.023315
2130.423096	334.410156
2129.660400	350.745117
2128.897705	347.409943
2128.134766	327.691315
2127.371826	321.084656
2126.608643	321.031830
2125.845215	347.181366
2125.081787	334.025208
2124.318359	333.970245
2123.554688	327.367920
2122.790771	317.494598
2122.026855	359.986176
2121.262939	333.750427
2120.498779	340.238525
2119.734375	323.827576
2118.969971	392.453644
2118.205322	340.070496
2117.440674	310.590179
2116.676025	353.033844
2115.911133	356.243988
2115.145996	326.775543
2114.380859	395.333282
2113.615479	392.001465
2112.850098	372.340057
2112.084473	359.216309
2111.318848	388.542725
2110.552979	336.246277
2109.787109	332.926880
2109.020996	352.452728
2108.254883	355.657562
2107.488525	362.123718
2106.722168	355.540375
2105.955566	342.436554
2105.188965	303.250977
2104.422119	394.487305
2103.655029	397.681976
2102.887939	358.506592
2102.120850	404.068085
2101.353516	413.775696
2100.585938	348.556702
2099.818359	348.499207
2099.050781	394.032257
2098.282959	354.896149
2097.514893	380.880737
2096.746826	315.720856
2095.978760	335.194672
2095.210449	341.646942
2094.441895	396.895721
2093.673340	361.050476
2092.904541	416.277802
2092.135742	393.447693
2091.366699	390.131683
2090.597656	383.566193
2089.828369	393.252960
2089.059082	376.940613
2088.289551	337.890991
2087.520020	347.580475
2086.750244	350.770966
2085.980469	444.886047
2085.210449	376.629639
2084.440186	409.030182
2083.670166	370.013824
2082.899658	373.197937
2082.129150	386.114960
2081.358643	389.295319
2080.587891	379.500275
2079.816895	353.493134
2079.045898	418.285187
2078.274902	330.682495
2077.503662	356.559479
2076.732178	350.018738
2075.960693	385.605072
2075.188965	385.541382
2074.417236	401.674225
2073.645264	353.026245
2072.873291	398.303253
2072.101074	394.999725
2071.328857	346.376953
2070.556396	430.472137
2069.783936	423.928802
2069.011230	362.383026
2068.238525	391.438385
2067.465576	407.546143
2066.692627	388.075012
2065.919434	378.310577
2065.145996	455.837372
2064.372559	407.276703
2063.599121	384.586609
2062.825439	378.060425
2062.051514	403.843933
2061.277588	371.474945
2060.503662	410.169708
2059.729248	406.872711
2058.955078	390.662354
2058.180664	422.878510
2057.406006	400.215729
2056.631348	458.235748
2055.856445	435.574554
2055.081543	419.372772
2054.306396	454.782898
2053.531250	457.932495
2052.755859	441.735016
2051.980225	406.199982
2051.204590	415.802582
2050.428955	431.847473
2049.653076	438.220398
2048.877197	428.482819
2048.101074	454.181030
2047.324707	415.458527
2046.548340	383.188965
2045.771851	466.833618
2044.995239	447.442261
2044.218506	428.057281
2043.441528	434.422272
2042.664551	440.785156
2041.887329	418.194000
2041.110107	430.990112
2040.332642	453.429382
2039.555176	450.138977
2038.777466	462.923401
2037.999634	427.490326
2037.221802	475.624725
2036.443726	472.332733
2035.665527	440.128326
2034.887207	443.267456
2034.108765	465.674835
2033.330200	481.652740
2032.551514	504.046295
2031.772705	491.122925
2030.993774	497.460358
2030.214600	471.706757
2029.435425	490.878693
2028.656128	455.511230
2027.876587	471.472168
2027.097046	513.081909
2026.317261	445.665955
2025.537476	445.592041
2024.757446	487.185303
2023.977295	461.467407
2023.197021	525.472900
2022.416626	502.960754
2021.636230	502.877319
2020.855591	480.376312
2020.074707	518.720337
2019.293823	477.015472
2018.512817	473.735382
2017.731689	521.662537
2016.950439	486.377563
2016.168945	518.290039
2015.387451	502.210083
2014.605713	537.307556
2013.823975	495.647888
2013.041992	495.565613
2012.260010	514.663330
2011.477783	476.224243
2010.695435	514.492432
2009.912964	488.846405
2009.130371	530.294312
2008.347656	581.310425
2007.564819	494.989838
2006.781860	536.416016
2005.998779	590.598083
2005.215576	529.854004
2004.432129	517.000549
2003.648682	513.723816
2002.864990	475.354858
2002.081299	612.436035
2001.297363	538.981750
2000.513428	580.345398
1999.729248	580.248962
1998.944946	548.276001
1998.160522	554.559143
1997.375977	513.041260
1996.591309	583.049316
1995.806519	551.097046
1995.021606	566.930481
1994.236572	611.418823
1993.451416	538.086487
1992.666016	623.949158
1991.880615	521.993103
1991.094971	588.735779
1990.309326	595.001465
1989.523438	578.996033
1988.737549	620.249695
1987.951416	610.605835
1987.165161	623.223083
1986.378784	524.564819
1985.592285	626.194397
1984.805664	587.952698
1984.018921	587.854919
1983.232056	632.235962
1982.444946	584.482727
1981.657837	612.969543
1980.870605	616.042969
1980.083130	581.015991
1979.295654	603.140198
1978.507935	618.909302
1977.720093	615.632874
1976.932129	596.493347
1976.144165	602.738647
1975.355957	586.779419
1974.567627	640.593018
1973.779053	627.803406
1972.990479	627.698853
1972.201782	624.424683
1971.412964	665.519470
1970.623901	687.588928
1969.834839	709.650940
1969.045532	681.024719
1968.256226	668.243164
1967.466675	623.800781
1966.677002	680.684387
1965.887207	724.887207
1965.097290	721.601501
1964.307251	655.028992
1963.517090	718.197144
1962.726807	676.954041
1961.936401	673.678406
1961.145874	638.781006
1960.355103	641.836243
1959.564331	682.825195
1958.773315	647.943665
1957.982178	707.878906
1957.191040	729.878418
1956.399658	634.983093
1955.608154	704.366272
1954.816528	672.668152
1954.024780	719.919067
1953.232910	754.526123
1952.440918	710.209412
1951.648682	716.402893
1950.856445	744.682251
1950.063965	716.163879
1949.271484	709.735596
1948.478760	700.155640
1947.685913	744.185364
1946.893066	734.602783
1946.099976	747.089294
1945.306763	781.633850
1944.513428	718.478882
1943.719971	753.016663
1942.926270	774.942139
1942.132568	718.119141
1941.338745	743.192200
1940.544678	746.216736
1939.750610	708.315308
1938.956299	758.557678
1938.161865	767.872070
1937.367310	770.890320
1936.572632	770.761597
1935.777832	776.923706
1934.982910	789.373596
1934.187866	804.963684
1933.392700	789.109924
1932.597290	829.841492
1931.801880	795.131897
1931.006226	747.864685
1930.210571	791.724426
1929.414673	844.993164
1928.618652	782.037659
1927.822510	788.187378
1927.026245	750.379639
1926.229858	791.063049
1925.433350	756.406006
1924.636719	803.350952
1923.839844	759.290710
1923.042969	803.082336
1922.245850	846.859253
1921.448730	812.221741
1920.651367	815.221436
1919.853882	802.545288
1919.056274	868.233887
1918.258545	827.348022
1917.460693	795.875916
1916.662720	845.868347
1915.864624	848.859192
1915.066284	839.321777
1914.267944	779.687134
1913.469360	845.302429
1912.670776	848.291199
1911.871948	845.019531
1911.072998	822.973877
1910.273926	813.450195
1909.474731	807.057800
1908.675415	797.539856
1907.875977	816.168884
1907.076294	881.690002
1906.276611	819.021667
1905.476807	847.014160
1904.676758	909.372131
1903.876587	812.361389
1903.076294	893.447937
1902.275879	858.940674
1901.475342	861.919739
1900.674683	886.754333
1899.873901	911.580627
1899.072998	845.880066
1898.271851	883.187988
1897.470703	839.356079
1896.669312	886.011902
1895.867920	963.844360
1895.066284	898.189819
1894.264526	910.512085
1893.462646	944.653870
1892.660645	866.566895
1891.858521	903.821167
1891.056152	956.643433
1890.253784	875.477966
1889.451172	875.331238
1888.648560	884.528076
1887.845703	921.747925
1887.042725	884.231506
1886.239624	915.212952
1885.436401	943.071472
1884.633057	977.144531
1883.829590	942.755188
1883.025879	914.599182
1882.222168	929.997559
1881.418213	873.864502
1880.614258	920.357605
1879.810059	935.747192
1879.005737	951.131592
1878.201294	932.325500
1877.396729	860.702759
1876.592041	913.372375
1875.787231	916.325317
1874.982178	885.114868
1874.177124	943.964050
1873.371826	878.608521
1872.566406	934.334900
1871.760986	921.763733
1870.955322	937.124268
1870.149536	874.916138
1869.343506	924.401550
1868.537476	927.347839
1867.731323	908.586243
1866.924927	930.136902
1866.118530	911.381042
1865.311890	926.725098
1864.505127	935.866089
1863.698242	957.397522
1862.891235	957.236694
1862.084106	916.810547
1861.276855	953.818298
1860.469482	981.524658
1859.661865	900.869690
1858.854126	975.004333
1858.046387	903.661682
1857.238403	906.604004
1856.430298	962.138123
1855.622070	949.603699
1854.813721	1023.667725
1854.005249	958.560913
1853.196533	955.308105
1852.387817	905.690063
1851.578857	945.715210
1850.769775	982.636841
1849.960693	985.561157
1849.151367	932.882202
1848.341919	1013.026123
1847.532227	1006.679810
1846.722534	969.461060
1845.912720	981.645691
1845.102661	1027.776855
1844.292603	972.057800
1843.482300	999.662659
1842.671875	996.409607
1841.861328	891.374390
1841.050659	949.817017
1840.239868	989.740112
1839.428833	1032.732544
1838.617798	958.584351
1837.806519	1016.976196
1836.995117	930.530640
1836.183716	988.907471
1835.372070	957.939087
1834.560303	948.538818
1833.748291	976.091492
1832.936279	969.769836
1832.124146	951.137878
1831.311768	984.831299
1830.499390	932.355103
1829.686768	1024.494873
1828.874023	919.736877
1828.061157	1011.847717
1827.248169	987.077209
1826.434937	993.059875
1825.621704	992.892578
1824.808228	983.504944
1823.994751	961.828674
1823.181030	1013.897705
1822.367188	1010.654968
1821.553223	988.984985
1820.739136	1004.172607
1819.924927	991.721985
1819.110474	963.926331
1818.296021	1006.734253
1817.481323	948.257446
1816.666626	1027.872803
1815.851685	941.802185
1815.036621	953.912354
1814.221436	978.285339
1813.406006	981.186584
1812.590576	1014.743713
1811.774902	1020.702881
1810.959229	996.013489
1810.143311	965.204102
1809.327271	1014.059265
1808.511108	986.320251
1807.694824	995.341614
1806.878418	1001.297791
1806.061768	970.513306
1805.245117	1025.448242
1804.428223	997.730530
1803.611206	1022.042175
1802.794067	954.560913
1801.976807	991.107483
1801.159424	963.414063
1800.341919	1039.699951
1799.524170	1085.385864
1798.706421	950.698608
1797.888428	996.383972
1797.070313	990.104004
1796.252075	959.383240
1795.433716	1008.098694
1794.615234	1020.145813
1793.796509	934.466736
1792.977783	1025.907837
1792.158813	992.153931
1791.339844	1056.083862
1790.520630	1040.646729
1789.701294	976.395020
1788.881714	973.179321
1788.062134	988.265930
1787.242432	1039.943604
1786.422485	1045.866211
1785.602417	975.570374
1784.782349	984.549927
1783.962036	1024.002686
1783.141479	1008.593994
1782.320923	950.538208
1781.500244	996.068726
1780.679321	1032.447144
1779.858398	1026.182495
1779.037231	965.118225
1778.215942	1068.451782
1777.394531	1071.314575
1776.572998	970.714661
1775.751221	1080.079712
1774.929443	1061.645264
1774.107422	1012.802490
1773.285278	1012.631165
1772.463013	988.136475
1771.640625	957.570251
1770.818115	972.605225
1769.995483	1051.451416
1769.172607	1048.235107
1768.349731	1066.284912
1767.526611	1151.149780
1766.703369	1062.887207
1765.880005	1056.634644
1765.056519	986.632568
1764.232910	1041.100586
1763.409058	1071.271973
1762.585083	1071.090576
1761.761108	1067.875488
1760.936890	1043.428955
1760.112549	1106.939087
1759.288086	1091.590698
1758.463379	1094.437500
1757.638672	1039.691162
1756.813721	1033.453735
1755.988647	1102.971924
1755.163574	1057.340698
1754.338257	1032.928589
1753.512695	1078.182617
1752.687134	1108.280884
1751.861328	1032.403687
1751.035522	1026.174561
1750.209473	1071.398926
1749.383301	1056.087158
1748.557007	1037.755005
1747.730591	1113.204468
1746.903931	1073.697266
1746.077271	1076.539307
1745.250366	1052.168945
1744.423340	1121.518677
1743.596313	1082.036743
1742.768921	1124.160278
1741.941528	1069.584106
1741.114014	1075.444580
1740.286255	1090.364136
1739.458374	1044.880859
1738.630493	1002.432434
1737.802368	1123.016846
1736.973999	1149.991577
1736.145630	1056.243408
1735.317139	1134.514771
1734.488403	1089.070068
1733.659546	1173.341675
1732.830566	1130.921509
1732.001465	1091.531006
1731.172241	1115.463867
1730.342896	1118.288818
1729.513306	1118.098999
1728.683594	1081.750366
1727.853882	1171.948364
1727.023926	1135.602905
1726.193726	1201.667480
1725.363525	999.713928
1724.533203	1116.960571
1723.702637	1089.679321
1722.871948	1089.494385
1722.041138	1152.501221
1721.210205	1095.141479
1720.379150	1128.044800
1719.547974	1016.571716
1718.716553	1238.924194
1717.885010	1160.542480
1717.053467	1163.351440
1716.221558	1139.109253
1715.389648	1183.991455
1714.557617	1150.740234
1713.725342	1186.593140
1712.893066	1195.401978
1712.060547	1126.129517
1711.227905	1161.968140
1710.395142	1167.774658
1709.562256	1221.602783
1708.729126	1236.399902
1707.895874	1188.182373
1707.062622	1118.981445
1706.229126	1115.791748
1705.395508	1223.563477
1704.561646	1208.363281
1703.727783	1112.224731
1702.893677	1210.949707
1702.059570	1222.731323
1701.225220	1192.559448
1700.390747	1111.468140
1699.556030	1135.241943
1698.721313	1209.920044
1697.886353	1245.646240
1697.051392	1221.483643
1696.216187	1203.315796
1695.380859	1233.039185
1694.545410	1226.844727
1693.709717	1253.562012
1692.874023	1244.374756
1692.038086	1154.439697
1691.202026	1205.077637
1690.365845	1276.626709
1689.529541	1168.796387
1688.692993	1192.507324
1687.856445	1180.351318
1687.019653	1239.904785
1686.182739	1206.834229
1685.345703	1200.655273
1684.508545	1218.367920
1683.671143	1212.189087
1682.833740	1235.864014
1681.996094	1295.346802
1681.158325	1172.775513
1680.320435	1297.889160
1679.482422	1232.038818
1678.644287	1252.707275
1677.805908	1234.601074
1676.967407	1249.298706
1676.128784	1243.123535
1675.290039	1293.581909
1674.451172	1284.421143
1673.612183	1296.120483
1672.772949	1292.920410
1671.933594	1283.764282
1671.094116	1223.984131
1670.254517	1247.595947
1669.414795	1232.497925
1668.574829	1336.466675
1667.734863	1235.053589
1666.894653	1294.353394
1666.054321	1291.157593
1665.213867	1219.549072
1664.373169	1272.873169
1663.532471	1275.629517
1662.691528	1293.249756
1661.850464	1266.276733
1661.009277	1236.340942
1660.167969	1259.901733
1659.326538	1399.321777
1658.484863	1351.555664
1657.643066	1309.745728
1656.801147	1270.919556
1655.959106	1238.044312
1655.116943	1320.948853
1654.274658	1240.589478
1653.432129	1290.823730
1652.589478	1326.206177
1651.746704	1248.853271
1650.903809	1385.071045
1650.060791	1358.145996
1649.217529	1360.878906
1648.374146	1331.002808
1647.530640	1321.883789
1646.687012	1300.914551
1645.843262	1377.726440
1644.999390	1291.583008
1644.155273	1359.484619
1643.311035	1279.296265
1642.466675	1370.863403
1641.622192	1343.986206
1640.777588	1340.796631
1639.932739	1319.852295
1639.087769	1331.461914
1638.242798	1343.067505
1637.397461	1372.415894
1636.552124	1315.992798
1635.706665	1312.811035
1634.860962	1398.318481
1634.015137	1336.008179
1633.169189	1350.556030
1632.323120	1385.782227
1631.476929	1350.094116
1630.630493	1376.447021
1629.783936	1388.024536
1628.937256	1296.252197
1628.090454	1242.890259
1627.243530	1390.264038
1626.396484	1378.221191
1625.549194	1351.428955
1624.701782	1386.600220
1623.854248	1412.910278
1623.006592	1356.633667
1622.158691	1388.837158
1621.310791	1347.324707
1620.462646	1364.780151
1619.614380	1376.335327
1618.765991	1308.326050
1617.917358	1393.541138
1617.068726	1446.324585
1616.219849	1507.925415
1615.370850	1372.212769
1614.521729	1371.977783
1613.672363	1354.080811
1612.822998	1450.972900
1611.973389	1362.444946
1611.123657	1429.880859
1610.273804	1397.277832
1609.423828	1385.273926
1608.573608	1387.977295
1607.723389	1396.559814
1606.872925	1405.139404
1606.022339	1396.081177
1605.171509	1378.210205
1604.320679	1363.283447
1603.469604	1318.985718
1602.618408	1418.621094
1601.767090	1350.836182
1600.915649	1465.112305
1600.064087	1420.827271
1599.212280	1446.999390
1598.360352	1476.097168
1597.508301	1396.623779
1596.656128	1446.255127
1595.803833	1422.542480
1594.951294	1428.163696
1594.098633	1439.646973
1593.245850	1477.510376
1592.392944	1436.222046
1591.539795	1485.795166
1590.686646	1356.617676
1589.833252	1464.778564
1588.979736	1438.165649
1588.126099	1399.847656
1587.272217	1405.463623
1586.418335	1440.352905
1585.564209	1381.564819
1584.709961	1401.813477
1583.855591	1389.868652
1583.000977	1439.364136
1582.146362	1450.817139
1581.291504	1482.737915
1580.436523	1342.129883
1579.581421	1467.611206
1578.726074	1508.281494
1577.870605	1513.867554
1577.015137	1405.492676
1576.159424	1434.466431
1575.303467	1463.430176
1574.447510	1439.814697
1573.591309	1477.527588
1572.734985	1486.032227
1571.878540	1459.505737
1571.021973	1517.625244
1570.165161	1511.528442
1569.308350	1438.330933
1568.451294	1417.664673
1567.594116	1437.836548
1566.736694	1533.817505
1565.879272	1565.624390
1565.021606	1474.990234
1564.163818	1509.710571
1563.305908	1436.601074
1562.447876	1503.364502
1561.589600	1453.585083
1560.731201	1526.147461
1559.872681	1365.725342
1559.014038	1490.684692
1558.155273	1534.093140
1557.296265	1525.097778
1556.437134	1516.105469
1555.577881	1550.758545
1554.718506	1506.856812
1553.859009	1521.140015
1552.999268	1602.302002
1552.139404	1506.079102
1551.279419	1441.866211
1550.419312	1476.495850
1549.558960	1563.421387
1548.698608	1484.704102
1547.838013	1504.783447
1546.977173	1507.428833
1546.116333	1542.017212
1545.255249	1527.234253
1544.394165	1483.426514
1543.532837	1549.928223
1542.671265	1514.837524
1541.809692	1497.167725
1540.947876	1502.711792
1540.085938	1470.547607
1539.223877	1461.594360
1538.361694	1626.613403
1537.499268	1545.161499
1536.636841	1544.895264
1535.774170	1483.771240
1534.911377	1471.925659
1534.048340	1515.126953
1533.185303	1511.969238
1532.322021	1558.044556
1531.458618	1580.940063
1530.594971	1574.877563
1529.731323	1594.867554
1528.867432	1528.030640
1528.003418	1588.530640
1527.139282	1530.396851
1526.275024	1527.240356
1525.410522	1535.653076
1524.545898	1463.100708
1523.681152	1587.161499
1522.816284	1610.011841
1521.951172	1540.374023
1521.086060	1577.671875
1520.220703	1453.172241
1519.355225	1487.583740
1518.489502	1545.087280
1517.623779	1504.395508
1516.757813	1576.311401
1515.891724	1576.039307
1515.025513	1587.311401
1514.159058	1627.434814
1513.292480	1517.522949
1512.425781	1574.951538
1511.558960	1675.620728
1510.692017	1559.990234
1509.824829	1597.200317
1508.957520	1611.337280
1508.090088	1541.890137
1507.222534	1628.070068
1506.354736	1581.692261
1505.486938	1664.954834
1504.618896	1630.106689
1503.750610	1552.077271
1502.882324	1606.511230
1502.013794	1617.747925
1501.145142	1603.078125
1500.276367	1628.699219
1499.407471	1591.015991
1498.538330	1559.098877
1497.669067	1558.829468
1496.799683	1705.214233
1495.930176	1612.917114
1495.060547	1667.255249
1494.190674	1664.093018
1493.320679	1614.954468
1492.450562	1534.228760
1491.580200	1588.542725
1490.709717	1683.047241
1489.839233	1662.655029
1488.968384	1613.558838
1488.097534	1656.338867
1487.226440	1638.831665
1486.355347	1652.896362
1485.483887	1701.385376
1484.612427	1735.514526
1483.740845	1631.961792
1482.869019	1628.811890
1481.997070	1691.606934
1481.124878	1662.647949
1480.252686	1642.297241
1479.380249	1679.266357
1478.507690	1681.840942
1477.635010	1733.113525
1476.762207	1695.579590
1475.889160	1632.285522
1475.015991	1743.666382
1474.142700	1794.892578
1473.269165	1725.889648
1472.395630	1734.175903
1471.521851	1713.847290
1470.647949	1730.714600
1469.773804	1770.457642
1468.899658	1747.273438
1468.025269	1721.238037
1467.150757	1843.864136
1466.276001	1880.701416
1465.401245	1726.059082
1464.526245	1820.048218
1463.651123	1759.741699
1462.775879	1796.567749
1461.900391	1807.679443
1461.024780	1875.891846
1460.149048	1778.505493
1459.273193	1818.156738
1458.397217	1857.794189
1457.520996	1880.298218
1456.644653	1917.058228
1455.768188	1862.532715
1454.891479	1919.245361
1454.014648	1947.425293
1453.137695	1813.100708
1452.260620	1884.043579
1451.383423	1963.511230
1450.505981	1883.390137
1449.628418	1883.063477
1448.750732	1854.253662
1447.872803	1876.714600
1446.994873	1859.305054
1446.116699	1895.991333
1445.238403	1887.123291
1444.359863	1975.017090
1443.481201	1906.385986
1442.602417	2053.987793
1441.723511	2036.565063
1440.844482	2033.367798
1439.965210	2024.484619
1439.085815	2058.247803
1438.206299	2103.368896
1437.326538	2006.379150
1436.446777	2054.334717
1435.566772	2133.523438
1434.686646	2008.174561
1433.806274	1976.586670
1432.925781	2035.871460
1432.045166	2044.034668
1431.164429	2023.810547
1430.283569	1884.399414
1429.402466	2037.294800
1428.521240	1994.386353
1427.639893	1960.002197
1426.758301	2005.037354
1425.876709	1987.676025
1424.994873	2004.340576
1424.112793	2020.999268
1423.230713	1961.133911
1422.348389	2074.133545
1421.465942	2048.275879
1420.583374	1892.130615
1419.700562	2070.220215
1418.817627	2081.186279
1417.934570	2083.655518
1417.051392	2086.123779
1416.167969	2145.192627
1415.284546	2102.375732
1414.400757	2133.130127
1413.516968	2104.473145
1412.633057	2033.404663
1411.748901	2021.740479
1410.864624	2012.907471
1409.980103	2021.037109
1409.095459	2068.729736
1408.210815	2014.682617
1407.325806	2005.856567
1406.440796	2016.806152
1405.555542	2036.224365
1404.670166	2010.456787
1403.784668	2091.979248
1402.899048	1998.466187
1402.013184	2009.407104
1401.127197	1941.336304
1400.241089	2042.562134
1399.354736	1994.254150
1398.468262	1988.266479
1397.581665	2066.873047
1396.694946	2024.224243
1395.807983	2083.065674
1394.920898	2051.701904
1394.033691	2054.162354
1393.146362	2025.631592
1392.258789	2025.278687
1391.371094	2024.925903
1390.483276	2018.941406
1389.595337	2069.265625
1388.707153	2094.238525
1387.818848	2082.616211
1386.930420	2020.348389
1386.041748	2073.450195
1385.152954	2039.334229
1384.264038	2075.539795
1383.375000	2069.554199
1382.485718	2052.324951
1381.596313	1945.152344
1380.706787	1998.211304
1379.817139	2023.152222
1378.927246	2039.656006
1378.037231	2030.873535
1377.147095	1991.200806
1376.256714	1968.389648
1375.366333	1951.201416
1374.475586	2040.684814
1373.584839	1978.585693
1372.693970	1967.016479
1371.802856	2005.950562
1370.911499	2005.600586
1370.020142	2033.296021
1369.128540	1979.664185
1368.236816	1917.640137
1367.344971	1995.791626
1366.453003	1928.181152
1365.560791	1967.073853
1364.668457	1952.722412
1363.775879	1971.989380
1362.883301	1890.426758
1361.990479	1965.700439
1361.097534	1872.968628
1360.204346	1889.436523
1359.311035	1849.925049
1358.417603	1913.960327
1357.524048	1991.961548
1356.630249	1826.578125
1355.736450	1840.242676
1354.842285	1853.902344
1353.948120	1847.986938
1353.053711	1903.569092
1352.159180	1852.930664
1351.264526	1802.309814
1350.369751	1860.664429
1349.474731	1851.959351
1348.579590	1829.293091
1347.684204	1764.749878
1346.788818	1842.612793
1345.893188	1758.550171
1344.997314	1708.007202
1344.101440	1788.629395
1343.205322	1805.055908
1342.309082	1821.476685
1341.412720	1734.701904
1340.516113	1798.532227
1339.619385	1683.912354
1338.722534	1719.854492
1337.825439	1700.044922
1336.928223	1716.466309
1336.030884	1666.018311
1335.133423	1668.512329
1334.235718	1573.530029
1333.337891	1573.254639
1332.439941	1631.444092
1331.541870	1525.383789
1330.643555	1647.571411
1329.745117	1558.240723
1328.846436	1563.532104
1327.947754	1554.913574
1327.048828	1562.984619
1326.149780	1543.246582
1325.250488	1523.515381
1324.351074	1442.638794
1323.451538	1489.631836
1322.551880	1528.272461
1321.651978	1519.670166
1320.751953	1424.962036
1319.851807	1410.826416
1318.951416	1457.783691
1318.050903	1413.108276
1317.150269	1457.272827
1316.249512	1495.871338
1315.348511	1434.563843
1314.447388	1317.791992
1313.546021	1384.132446
1312.644653	1356.156616
1311.743042	1364.237427
1310.841309	1375.087646
1309.939331	1427.512085
1309.037231	1357.977295
1308.135010	1341.113770
1307.232666	1340.878662
1306.330078	1362.802979
1305.427368	1340.408447
1304.524536	1342.942261
1303.621460	1276.263550
1302.718262	1273.271729
1301.814941	1342.235718
1300.911499	1325.398193
1300.007813	1303.033447
1299.104004	1297.272705
1298.199951	1261.092896
1297.295898	1299.582642
1296.391602	1398.879517
1295.487061	1495.377563
1294.582520	1486.824219
1293.677734	1558.404541
1292.772827	1466.963745
1291.867676	1358.982056
1290.962402	1256.561523
1290.057007	1198.355957
1289.151489	1192.624146
1288.245728	1128.929688
1287.339844	1123.211914
1286.433838	1131.292480
1285.527588	1100.747314
1284.621216	1075.729492
1283.714722	1144.485352
1282.808105	1091.895386
1281.901245	1177.165161
1280.994263	1022.603210
1280.087036	1052.737915
1279.179810	1063.574463
1278.272217	1107.465820
1277.364624	1060.446289
1276.456787	1087.799072
1275.548828	1071.087280
1274.640747	1043.369507
1273.732544	1032.176147
1272.824097	1040.250610
1271.915405	1081.340332
1271.006714	968.358398
1270.097778	1017.697754
1269.188721	1017.518799
1268.279541	1011.840698
1267.370117	986.921021
1266.460571	956.512817
1265.550781	1074.513550
1264.640991	1019.371887
1263.730957	991.721008
1262.820679	1046.479858
1261.910400	991.372070
1260.999878	1021.400330
1260.089233	1010.239746
1259.178345	1059.467163
1258.267334	979.697388
1257.356201	1023.425232
1256.444824	965.636108
1255.533447	970.951721
1254.621704	998.203979
1253.709961	915.773193
1252.797974	915.611938
1251.885864	948.341125
1250.973633	953.654907
1250.061157	882.249451
1249.148560	950.579590
1248.235840	923.022766
1247.322876	928.337097
1246.409790	982.933105
1245.496582	960.859985
1244.583130	974.375732
1243.669556	935.892639
1242.755859	930.255676
1241.841919	941.033997
1240.927856	872.491089
1240.013672	965.313721
1239.099365	937.802368
1238.184814	997.777039
1237.270142	923.806030
1236.355225	970.098572
1235.440186	879.765259
1234.525024	983.415100
1233.609741	893.111206
1232.694214	901.145935
1231.778564	941.940979
1230.862671	900.828064
1229.946777	870.646912
1229.030640	944.171448
1228.114258	965.831604
1227.197876	815.629089
1226.281128	872.760071
1225.364380	921.690186
1224.447388	940.612427
1223.530273	834.135071
1222.613037	872.144226
1221.695557	825.665771
1220.777954	839.142517
1219.860229	868.958435
1218.942261	830.675720
1218.024170	855.036438
1217.105957	879.388611
1216.187500	881.955383
1215.268921	843.697205
1214.350220	832.663757
1213.431274	862.443726
1212.512207	867.731750
1211.593018	834.942322
1210.673706	878.302063
1209.754150	782.991638
1208.834351	875.273499
1207.914551	839.787964
1206.994507	796.163147
1206.074219	766.137634
1205.153931	793.165466
1204.233398	784.877747
1203.312744	822.754089
1202.391846	792.744995
1201.470825	830.606445
1200.549683	800.606506
1199.628296	814.032166
1198.706787	805.749390
1197.785156	789.332031
1196.863281	819.024475
1195.941284	802.610474
1195.019165	797.046448
1194.096802	723.720276
1193.174438	777.793945
1192.251709	750.560364
1191.328979	810.028320
1190.406006	753.003479
1189.482788	736.621216
1188.559570	779.813904
1187.636108	806.747986
1186.712402	847.206177
1185.788696	736.099976
1184.864746	725.146606
1183.940552	735.839417
1183.016357	800.624695
1182.091919	778.848328
1181.167236	767.895020
1180.242554	832.640076
1179.317505	794.652100
1178.392456	745.867798
1177.467163	802.476501
1176.541748	729.394897
1175.616211	794.089355
1174.690430	737.238037
1173.764526	766.807739
1172.838501	796.366943
1171.912231	761.137939
1170.985840	774.496094
1170.059204	771.660706
1169.132446	793.105103
1168.205566	741.718567
1167.278564	757.767151
1166.351318	749.544250
1165.423828	682.018311
1164.496338	730.411865
1163.568604	660.218384
1162.640747	708.598572
1161.712646	668.065735
1160.784424	719.120667
1159.856079	735.150269
1158.927490	729.635193
1157.998779	724.121948
1157.069946	694.387817
1156.140869	737.319885
1155.211670	659.165405
1154.282349	672.498474
1153.352783	691.205750
1152.423096	669.570801
1151.493164	715.157532
1150.563232	685.461731
1149.632935	682.652466
1148.702637	647.598633
1147.772095	733.456604
1146.841431	668.858154
1145.910522	695.596436
1144.979492	706.213867
1144.048340	706.088501
1143.116943	638.856384
1142.185425	681.683655
1141.253784	662.779358
1140.321899	708.269958
1139.389893	724.238342
1138.457764	721.427856
1137.525391	699.848389
1136.592896	656.829102
1135.660278	637.949219
1134.727417	691.435547
1133.794434	693.992188
1132.861206	699.226929
1131.927856	715.174011
1130.994385	787.355042
1130.060669	827.379150
1129.126831	854.003357
1128.192871	813.701843
1127.258667	861.728333
1126.324341	783.979858
1125.389893	757.088257
1124.455200	732.880920
1123.520386	732.750610
1122.585327	628.342224
1121.650146	700.410156
1120.714844	636.137268
1119.779297	652.058350
1118.843628	609.192078
1117.907837	662.512085
1116.971802	662.394226
1116.035645	630.230774
1115.099365	659.488586
1114.162842	597.972290
1113.226196	616.549194
1112.289307	592.422363
1111.352417	629.670227
1110.415161	589.543884
1109.477905	600.107483
1108.540405	600.000671
1107.602661	586.562866
1106.664917	573.129883
1105.726807	559.701599
1104.788696	604.903015
1103.850342	610.123901
1102.911865	602.023804
1101.973145	652.520142
1101.034302	588.494995
1100.095337	591.052551
1099.156128	601.594971
1098.216797	596.164917
1097.277344	513.568420
1096.337646	609.255005
1095.397827	590.526245
1094.457764	630.314331
1093.517700	571.702209
1092.577271	608.820801
1091.636841	603.396057
1090.696167	592.657837
1089.755249	576.609070
1088.814209	573.849609
1087.873047	600.309631
1086.931763	610.825684
1085.990234	589.474426
1085.048584	573.440430
1084.106689	528.214294
1083.164673	610.390076
1082.222412	543.946289
1081.280151	535.890503
1080.337524	610.063477
1079.394897	583.434875
1078.452026	588.633789
1077.509033	593.830811
1076.565796	553.966492
1075.622437	514.116394
1074.678955	537.871155
1073.735229	553.669983
1072.791382	535.030457
1071.847290	619.677124
1070.903076	553.373535
1069.958740	558.569214
1069.014160	561.116272
1068.069458	550.430847
1067.124512	637.644958
1066.179565	595.205383
1065.234253	595.099060
1064.288940	687.547241
1063.343384	682.136536
1062.397583	756.031799
1061.451660	697.750793
1060.505615	702.911194
1059.559448	684.291260
1058.613037	602.280029
1057.666382	599.531311
1056.719727	557.174011
1055.772827	575.555542
1054.825684	493.622253
1053.878418	509.369354
1052.931030	517.194519
1051.983398	480.166199
1051.035645	540.749878
1050.087769	532.741211
1049.139648	477.271851
1048.191406	540.459839
1047.242920	498.188507
1046.294312	513.912109
1045.345581	461.120667
1044.396606	500.555725
1043.447510	513.636353
1042.498291	558.315002
1041.548828	539.783508
1040.599121	531.789063
1039.649414	476.418793
1038.699341	497.386932
1037.749268	497.297943
1036.798950	486.685974
1035.848511	494.489655
1034.897827	491.771362
1033.947021	512.717896
1032.996094	488.966461
1032.044922	483.622131
1031.093506	520.326294
1030.142090	465.056885
1029.190430	464.973602
1028.238525	496.408325
1027.286499	525.205750
1026.334351	485.728271
1025.381958	438.389679
1024.429443	509.175842
1023.476807	451.353363
1022.523926	474.885590
1021.570923	459.061249
1020.617737	453.733521
1019.664368	469.385803
1018.710815	479.788879
1017.757080	498.052185
1016.803223	492.721191
1015.849121	482.151306
1014.894897	482.064880
1013.940491	521.270203
1012.985962	421.655518
1012.031189	507.990723
1011.076294	452.920807
1010.121216	471.162567
1009.165955	457.992554
1008.210510	470.993561
1007.254944	436.898987
1006.299133	517.907043
1005.343201	418.435669
1004.387085	426.204865
1003.430786	428.742676
1002.474365	475.714417
1001.517700	467.789032
1000.560913	472.930817
999.603943	457.171509
998.646790	483.208832
997.689514	451.784454
996.731995	467.369354
995.774353	527.327698
994.816528	480.251892
993.858521	464.508057
992.900330	485.297668
991.942017	511.297119
990.983459	417.310455
990.024780	461.566772
989.065918	482.341888
988.106873	469.221313
987.147705	445.680176
986.188293	458.629333
985.228760	445.520050
984.269043	442.835083
983.309143	466.195496
982.349060	447.883881
981.388794	466.027954
980.428406	458.135071
979.467834	460.655273
978.507019	465.776672
977.546082	468.294586
976.585022	476.013916
975.623718	460.324097
974.662292	442.039703
973.700623	454.959045
972.738831	452.277924
971.776855	472.987213
970.814758	459.910339
969.852417	441.642334
968.889954	457.147461
967.927246	457.065216
966.964417	438.807526
966.001404	490.649109
965.038208	454.222992
964.074890	487.877441
963.111328	518.925171
962.147644	464.354431
961.183777	466.864532
960.219727	484.933075
959.255493	464.103699
958.291077	482.166199
957.326538	487.263031
956.361755	445.713562
955.396851	461.178650
954.431763	450.733887
953.466492	466.192474
952.501038	471.287476
951.535461	432.367218
950.569641	427.112213
949.603699	478.797119
948.637573	460.597473
947.671265	470.863129
946.704773	442.324646
945.738098	509.486847
944.771240	483.537415
943.804260	501.547363
942.837097	444.590698
941.869751	465.185455
940.902222	457.349915
939.934509	452.100586
938.966614	446.853149
937.998535	485.510101
937.030334	457.020172
936.061951	498.242859
935.093323	451.693115
934.124573	490.321228
933.155640	446.369873
932.186584	451.448761
931.217285	448.788086
930.247864	451.285889
929.278198	453.782776
928.308411	482.057190
927.338440	443.309509
926.368286	476.729401
925.397949	497.254974
924.427429	453.373444
923.456787	458.442657
922.485901	435.184418
921.514893	468.575531
920.543701	507.102814
919.572327	442.669708
918.600769	483.760925
917.629028	447.655334
916.657104	491.303040
915.685059	493.786102
914.712769	444.841492
913.740356	483.324219
912.767761	467.814453
911.794983	454.880219
910.822021	493.340240
909.848877	477.837006
908.875549	472.613556
907.902039	508.481384
906.928406	446.766510
905.954590	500.596130
904.980530	500.505646
904.006348	487.584015
903.031982	492.627380
902.057434	410.448608
901.082703	502.708618
900.107849	471.845215
899.132751	479.451630
898.157532	463.984222
897.182068	515.160034
896.206482	433.066162
895.230713	509.849548
894.254761	481.579773
893.278625	468.687012
892.302307	466.041534
891.325806	437.794952
890.349182	483.791077
889.372314	452.992218
888.395325	498.968903
887.418091	447.711548
886.440735	491.114624
885.463196	452.664337
884.485474	465.367188
883.507568	470.395935
882.529480	508.651337
881.551270	526.448242
880.572815	493.136475
879.594238	516.039001
878.615417	452.090881
877.636475	462.223907
876.657349	505.545624
875.677979	533.534790
874.698486	459.420410
873.718811	505.270905
872.739014	500.076538
871.758972	561.208679
870.778748	482.041901
869.798401	476.854492
868.817810	438.524628
867.837097	433.346954
866.856140	474.046600
865.875061	476.508850
864.893799	478.970184
863.912354	483.977844
862.930725	514.451538
861.948914	458.339050
860.966919	496.443939
859.984741	442.900391
859.002441	496.263855
858.019897	465.640076
857.037231	475.731689
856.054321	434.948456
855.071289	460.300507
854.088074	442.418549
853.104614	490.639557
852.121033	500.717377
851.137268	490.461517
850.153320	485.290894
849.169189	510.606110
848.184937	457.176208
847.200439	510.420746
846.215759	462.088104
845.230896	482.312103
844.245911	489.838593
843.260681	482.136963
842.275330	517.568848
841.289795	507.328278
840.304016	499.627563
839.318115	517.286865
838.332031	491.840302
837.345764	461.333374
836.359314	463.783905
835.372681	458.631866
834.385864	450.948273
833.398865	458.465210
832.411743	453.316895
831.424377	415.253967
830.436829	508.846802
829.449158	475.849792
828.461243	531.437744
827.473206	592.065796
826.484924	559.071594
825.496521	472.974548
824.507935	523.464844
823.519104	508.199524
822.530151	470.188660
821.541016	465.048279
820.551697	528.138123
819.562195	459.826080
818.572510	510.263580
817.582642	492.491547
816.592590	482.301392
815.602356	482.213623
814.611938	482.125885
813.621399	487.085663
812.630615	456.717407
811.639648	471.771301
810.648560	517.088318
809.657227	489.253021
808.665771	474.035187
807.674072	466.385864
806.682251	456.218750
805.690186	491.416901
804.697998	493.847015
803.705566	501.314606
802.713013	473.517487
801.720276	460.839966
800.727356	485.933929
799.734253	473.258759
798.740906	503.375031
797.747437	490.701233
796.753784	556.026733
795.759949	503.099915
794.765930	495.463104
793.771729	530.576965
792.777344	510.367249
791.782776	480.110229
790.788025	530.286865
789.793091	507.575439
788.798035	464.773926
787.802734	565.162537
786.807251	489.718201
785.811584	544.869080
784.815796	537.238342
783.819763	491.960297
782.823547	486.851501
781.827148	461.671814
780.830627	481.656616
779.833862	501.634094
778.836975	463.926880
777.839844	488.914795
776.842529	456.237183
775.845093	488.736359
774.847412	466.094208
773.849609	511.106781
772.851563	516.023438
771.853394	498.397644
770.854980	478.274231
769.856445	478.186890
768.857666	490.615295
767.858765	513.049805
766.859680	517.960571
765.860352	492.848297
764.860901	472.747803
763.861206	532.681946
762.861389	472.575104
761.861389	507.487946
760.861145	482.400391
759.860779	502.304443
758.860168	479.725525
757.859436	499.622772
756.858521	489.540833
755.857361	494.445770
754.856079	511.832611
753.854614	459.316986
752.852905	474.208008
751.851074	506.561188
750.848999	528.922852
749.846802	541.298462
748.844421	521.247437
747.841797	506.190765
746.839050	531.029175
745.836121	481.079254
744.832947	543.295837
743.829651	518.279175
742.826111	528.149414
741.822449	468.273224
740.818604	535.427246
739.814514	560.228333
738.810303	470.505646
737.805847	502.776459
736.801270	532.546875
735.796448	512.544739
734.791504	529.864319
733.786316	574.536377
732.781006	492.369568
731.775452	514.655762
730.769775	524.504761
729.763855	539.320801
728.757751	559.101196
727.751526	541.607666
726.745056	519.152649
725.738403	548.859863
724.731628	558.691650
723.724609	494.041168
722.717407	558.486938
721.710083	550.939453
720.702515	506.175934
719.694763	528.410339
718.686829	558.077637
717.678711	505.897675
716.670410	528.119873
715.661987	552.812866
714.653320	557.668579
713.644470	560.044373
712.635437	554.986450
711.626221	537.544556
710.616821	564.689758
709.607178	557.157471
708.597412	522.394043
707.587463	507.446136
706.577332	522.202393
705.567017	534.478821
704.556458	522.010803
703.545776	521.915039
702.534912	558.915466
701.523804	556.340271
700.512573	526.572144
699.501099	519.060303
698.489502	501.666229
697.477661	543.577881
696.465698	506.422760
695.453491	508.799683
694.441101	491.420135
693.428589	488.860901
692.415833	525.799255
691.402893	498.553741
690.389771	515.735596
689.376465	515.640869
688.362976	483.478699
687.349304	500.653809
686.335449	490.698547
685.321411	488.143036
684.307190	534.886719
683.292725	510.143829
682.278137	566.722290
681.263367	544.446106
680.248352	600.997437
679.233215	595.961670
678.217834	568.767944
677.202332	561.278137
676.186584	511.949097
675.170654	511.854950
674.154541	509.300446
673.138306	521.506470
672.121826	511.572632
671.105164	548.364014
670.088318	518.760193
669.071289	528.497253
668.054016	481.704224
667.036621	513.559509
666.019043	540.489502
665.001282	577.234802
663.983276	515.731934
662.965149	508.270782
661.946777	535.181824
660.928223	530.174316
659.909546	530.076721
658.890625	507.896667
657.871521	524.975220
656.852234	534.689392
655.832764	517.425171
654.813110	507.522705
653.793274	514.783264
652.773254	524.492065
651.752991	514.593689
650.732605	541.448853
649.711975	521.752747
648.691223	502.063904
647.670227	531.355103
646.649048	560.635437
645.627747	553.188965
644.606201	501.693970
643.584473	548.091370
642.562561	574.900635
641.540466	508.754425
640.518127	613.816467
639.495667	503.676788
638.473022	574.476807
637.450134	545.041321
636.427063	535.166077
635.403870	532.624207
634.380432	547.182617
633.356812	566.620361
632.333008	537.213318
631.309021	559.087036
630.284851	566.306824
629.260498	590.607666
628.235901	612.459351
627.211182	600.148254
626.186218	573.206543
625.161133	499.938965
624.135803	536.420837
623.110291	553.386597
622.084595	563.033997
621.058716	560.493103
620.032654	565.262573
619.006409	528.617798
617.979919	582.102905
616.953308	545.468506
615.926453	530.759705
614.899414	547.701294
613.872253	581.673035
612.844849	622.932190
611.817261	566.860901
610.789490	583.783142
609.761475	542.331665
608.733337	556.820618
607.705017	568.873169
606.676453	525.016663
605.647705	537.070496
604.618774	544.260437
603.589722	592.745544
602.560425	633.926208
601.530884	526.959961
600.501221	572.993408
599.471375	640.857117
598.441284	616.468262
597.411011	558.116028
596.380615	558.012817
595.349976	553.058228
594.319153	548.105469
593.288147	608.623962
592.256897	560.024414
591.225525	574.464233
590.193970	557.393799
589.162170	588.789673
588.130188	598.370911
587.098022	600.682312
586.065674	537.608032
585.033142	506.032806
584.000427	547.092102
582.967468	566.353333
581.934387	566.248474
580.901062	650.823242
579.867554	619.256104
578.833862	628.815552
577.799988	568.247253
576.765930	657.594177
575.731628	647.803650
574.697205	565.514832
573.662537	635.482239
572.627747	565.305298
571.592712	615.923706
570.557434	586.830322
569.522034	615.695496
568.486450	608.339233
567.450623	598.572144
566.414673	586.395447
565.378479	600.762939
564.342102	591.002563
563.305542	617.422913
562.268799	660.712952
561.231812	602.728455
560.194702	609.848145
559.157349	643.475281
558.119812	734.919739
557.082092	679.373535
556.044189	703.334290
555.006042	686.346252
553.967773	671.772156
552.929260	657.203491
551.890625	700.405640
550.851746	630.488770
549.812683	644.807739
548.773376	716.854675
547.733948	668.619507
546.694275	718.993225
545.654419	661.158691
544.614441	716.322571
543.574158	663.316528
542.533752	653.581848
541.493164	627.033813
540.452332	674.957031
539.411316	715.657776
538.370178	696.316162
537.328735	660.177124
536.287170	703.258057
535.245422	712.726440
534.203430	681.403076
533.161255	638.096985
532.118896	697.938782
531.076355	673.829407
530.033630	688.089294
528.990723	704.740967
527.947571	663.867249
526.904236	711.667542
525.860718	737.888428
524.817017	680.264160
523.773132	742.403809
522.729004	739.871338
521.684692	727.763977
520.640198	725.235107
519.595520	746.637878
518.550659	674.720215
517.505615	739.183594
516.460327	746.221313
515.414856	679.126343
514.369202	695.735901
513.323364	611.942444
512.277283	724.156494
511.231079	635.609802
510.184631	633.102478
509.138000	730.918091
508.091187	642.419495
507.044159	647.075378
505.996948	689.926086
504.949554	696.958191
503.901947	689.669250
502.854126	691.926758
501.806152	708.496460
500.757965	744.140503
499.709564	670.078674
