#Wave		#Intensity
3200.600830	4.209852
3200.007080	12.629557
3199.413086	12.627648
3198.819092	12.625739
3198.224854	16.831776
3197.630615	16.829231
3197.036377	4.206672
3196.442139	4.206036
3195.847656	-4.205400
3195.252930	21.023821
3194.658447	4.204128
3194.063721	16.813971
3193.468750	0.000000
3192.873779	8.404444
3192.278809	4.201586
3191.683838	-4.200951
3191.088623	-4.200315
3190.493164	29.397762
3189.897949	16.796181
3189.302490	8.396820
3188.706787	20.988874
3188.111328	20.985701
3187.515381	0.000000
3186.919678	4.195870
3186.323730	20.976177
3185.727783	16.778402
3185.131592	4.193966
3184.535400	-4.193331
3183.939209	12.578091
3183.342773	-4.192062
3182.746338	0.000000
3182.149902	8.381587
3181.553223	8.380319
3180.956543	12.568576
3180.359619	-12.566673
3179.762695	20.941286
3179.165771	0.000000
3178.568604	-4.186989
3177.971436	12.559066
3177.374268	4.185721
3176.776855	12.555264
3176.179443	-29.291180
3175.581787	8.367641
3174.984131	20.915936
3174.386475	0.000000
3173.788574	-4.181920
3173.190674	4.181287
3172.592773	25.083921
3171.994629	8.360041
3171.396484	-4.179387
3170.798340	12.536263
3170.199951	16.712484
3169.601563	12.532465
3169.002930	-4.176856
3168.404297	0.000000
3167.805664	16.702360
3167.206787	16.699829
3166.607910	8.348649
3166.008789	20.868460
3165.409912	16.692238
3164.810547	29.206989
3164.211426	20.858974
3163.612061	4.171163
3163.012695	12.511591
3162.413086	8.339796
3161.813477	-8.338532
3161.213623	8.337268
3160.614014	8.336004
3160.013916	20.836851
3159.414063	25.000431
3158.813965	16.664427
3158.213867	0.000000
3157.613525	4.164844
3157.013184	24.985271
3156.412598	12.490742
3155.812256	20.814745
3155.211426	29.136223
3154.610840	33.293491
3154.010010	-8.322110
3153.409180	4.160424
3152.808105	16.639172
3152.207031	20.795809
3151.605957	0.000000
3151.004639	-4.157900
3150.403320	16.629078
3149.801758	20.783192
3149.200195	8.312016
3148.598633	-12.466131
3147.996826	4.154747
3147.395020	24.924696
3146.793213	20.767429
3146.191162	16.611422
3145.589111	8.304450
3144.986816	12.454784
3144.384766	4.150965
3143.782227	12.451004
3143.179932	4.149704
3142.577393	24.894447
3141.974609	8.296889
3141.371826	20.739075
3140.769043	29.030294
3140.166260	0.000000
3139.563232	-8.291851
3138.960205	24.871777
3138.356934	24.868000
3137.753662	8.288074
3137.150391	12.430223
3136.546875	4.142778
3135.943359	12.426448
3135.339600	-4.141520
3134.735840	4.140891
3134.132080	24.841572
3133.528076	4.139633
3132.924072	12.417012
3132.320068	12.415126
3131.715820	8.275493
3131.111572	8.274236
3130.507080	16.545956
3129.902588	24.815163
3129.298096	20.676159
3128.693604	0.000000
3128.088867	8.267950
3127.483887	4.133347
3126.878906	4.132719
3126.273926	20.660452
3125.668945	12.394386
3125.063721	8.261668
3124.458252	-12.390618
3123.853027	8.259156
3123.247559	24.773701
3122.641846	12.384968
3122.036133	16.510778
3121.430420	41.270672
3120.824707	12.379318
3120.218750	-4.125812
3119.612549	20.625921
3119.006592	-8.249114
3118.400391	4.123930
3117.793945	4.123302
3117.187500	16.490700
3116.581055	-4.122048
3115.974609	-4.121421
3115.367920	8.241588
3114.760986	4.120167
3114.154297	24.717241
3113.547363	-4.118913
3112.940186	-8.236573
3112.333008	20.588299
3111.725830	24.702200
3111.118408	0.000000
3110.510986	20.578901
3109.903564	4.115154
3109.295898	4.114527
3108.688232	12.341703
3108.080566	20.566374
3107.472656	12.337946
3106.864746	4.112022
3106.256592	20.556982
3105.648438	4.110771
3105.040039	8.220289
3104.431885	16.438076
3103.823486	4.108893
3103.214844	-4.108267
3102.606201	8.215283
3101.997559	8.214032
3101.388672	12.319172
3100.779785	12.317295
3100.170898	24.630838
3099.561768	32.836117
3098.952637	4.103889
3098.343262	8.206528
3097.733887	4.102639
3097.124512	-8.204027
3096.514893	20.506945
3095.905273	16.403055
3095.295410	12.300417
3094.685791	20.497572
3094.075684	16.395557
3093.465820	8.196529
3092.855713	8.195280
3092.245361	4.097016
3091.635254	20.481956
3091.024658	12.287300
3090.414307	4.095142
3089.803711	32.756145
3089.193115	12.281682
3088.582275	28.652889
3087.971436	24.555874
3087.360596	16.368088
3086.749512	8.182796
3086.138428	24.544643
3085.527100	12.270451
3084.915771	8.179052
3084.304443	24.533415
3083.692871	4.088279
3083.081299	24.525932
3082.469482	8.174064
3081.857910	0.000000
3081.245850	0.000000
3080.634033	0.000000
3080.021973	12.253615
3079.409668	-4.083915
3078.797607	12.249877
3078.185059	0.000000
3077.572754	8.164093
3076.960205	20.407116
3076.347656	28.565603
3075.734863	28.561245
3075.122070	-12.238665
3074.509033	16.315729
3073.895996	-4.078310
3073.282959	24.466124
3072.669922	4.077065
3072.056641	12.229327
3071.443115	4.075820
3070.829834	4.075198
3070.216064	28.522030
3069.602539	8.147907
3068.988770	20.366657
3068.375000	4.072710
3067.760986	4.072087
3067.146973	16.285862
3066.532715	24.425062
3065.918701	16.280888
3065.304199	8.139201
3064.689941	32.551830
3064.075439	8.136714
3063.460693	16.270943
3062.846191	12.201343
3062.231445	12.199479
3061.616455	4.065872
3061.001465	16.261002
3060.386475	-12.193888
3059.771240	24.384048
3059.156006	12.190162
3058.540771	12.188298
3057.925293	20.310726
3057.309814	-12.184573
3056.694092	12.182711
3056.078369	4.060283
3055.462646	20.298311
3054.846680	32.472332
3054.230713	-8.116842
3053.614502	0.000000
3052.998291	28.400263
3052.382080	4.056560
3051.765625	24.335638
3051.149170	8.110640
3050.532715	32.437595
3049.916016	0.000000
3049.299316	8.106918
3048.682373	-8.105679
3048.065430	32.417755
3047.448486	4.051600
3046.831299	12.152940
3046.214111	-12.151081
3045.596680	-8.099482
3044.979248	8.098243
3044.361816	28.339512
3043.744141	28.335176
3043.126465	-8.094526
3042.508545	16.186575
3041.890869	8.092049
3041.272705	16.181622
3040.654785	4.044786
3040.036621	12.132502
3039.418213	20.217741
3038.799805	20.214647
3038.181396	8.084620
3037.562988	0.000000
3036.944336	4.041073
3036.325439	40.404545
3035.706543	4.039836
3035.087646	12.117652
3034.468750	24.231592
3033.849609	20.189901
3033.230469	4.037362
3032.611084	24.220463
3031.991699	0.000000
3031.372070	32.284061
3030.752441	32.279114
3030.132813	20.171358
3029.513184	8.067307
3028.893066	-12.099107
3028.273193	24.194508
3027.653076	-4.031800
3027.032959	4.031182
3026.412598	20.152824
3025.792480	12.089842
3025.171875	4.029330
3024.551270	8.057425
3023.930664	24.168570
3023.310059	24.164865
3022.689209	12.080582
3022.068115	12.078730
3021.447266	0.000000
3020.826172	20.125046
3020.204834	8.048784
3019.583496	16.095100
3018.962158	20.115791
3018.340576	28.157791
3017.718994	24.131550
3017.097412	-4.021308
3016.475586	16.082767
3015.853760	16.080301
3015.231689	28.136211
3014.609619	28.131897
3013.987549	20.091129
3013.365234	8.035219
3012.742920	20.084969
3012.120361	8.032755
3011.497803	20.078806
3010.875244	24.090872
3010.252441	28.101706
3009.629639	20.069567
3009.006836	36.119678
3008.383789	16.050728
3007.760498	28.084463
3007.137451	24.068705
3006.514160	20.054176
3005.890625	32.081757
3005.267090	32.076832
3004.643555	28.062922
3004.019775	-8.016747
3003.395996	8.015516
3002.772217	20.035715
3002.148193	28.045696
3001.524170	28.041389
3000.899902	12.015894
3000.275635	28.032782
2999.651367	28.028477
2999.026855	4.003453
2998.402344	16.011354
2997.777588	4.002224
2997.152832	32.012875
2996.528076	24.005970
2995.903076	24.002283
2995.278076	11.999298
2994.653076	19.995758
2994.027832	0.000000
2993.402344	19.989616
2992.777100	27.981163
2992.151367	31.973558
2991.525879	19.980404
2990.900146	11.986401
2990.274414	31.958824
2989.648438	19.971195
2989.022461	19.968126
2988.396240	11.979035
2987.770264	19.961990
2987.143799	19.958923
2986.517578	35.920540
2985.891113	23.943346
2985.264404	0.000000
2984.637695	19.946653
2984.010986	27.921022
2983.384033	23.928627
2982.757080	7.974982
2982.130127	23.921268
2981.502930	7.972530
2980.875732	43.842175
2980.248291	19.925198
2979.620850	47.813118
2978.993408	15.935255
2978.365723	19.916006
2977.738037	39.825886
2977.110107	39.819759
2976.482178	31.850908
2975.854248	19.903755
2975.226074	3.980139
2974.597900	7.959053
2973.969482	19.894571
2973.341309	31.826416
2972.712646	27.843828
2972.083984	11.931233
2971.455322	47.717590
2970.826660	15.903416
2970.197754	47.702904
2969.568604	31.797043
2968.939697	15.896074
2968.310547	35.760662
2967.681152	35.755157
2967.051758	23.833103
2966.422363	19.857861
2965.792725	11.912883
2965.163086	43.673843
2964.533203	19.848692
2963.903564	23.814762
2963.273438	15.874063
2962.643311	19.839523
2962.013184	23.803762
2961.383057	27.766779
2960.752686	35.694649
2960.122314	27.758226
2959.491699	43.613354
2958.861084	47.570873
2958.230225	35.672661
2957.599609	35.667164
2956.968506	43.586487
2956.337646	39.617973
2955.706299	35.650684
2955.075195	31.684612
2954.443848	7.919933
2953.812500	43.552917
2953.180908	55.422443
2952.549316	51.455769
2951.917725	43.532787
2951.285889	51.439907
2950.653809	31.650450
2950.021973	47.468357
2949.389893	47.461037
2948.757568	43.499245
2948.125244	67.215744
2947.492920	63.252121
2946.860352	43.479130
2946.227783	63.232620
2945.595215	51.368580
2944.962402	47.409840
2944.329590	55.302952
2943.696533	47.395218
2943.063477	75.030853
2942.430420	122.399887
2941.797119	78.955490
2941.163574	86.837639
2940.530273	94.717361
2939.896729	106.540588
2939.262939	130.196182
2938.629150	102.562988
2937.995361	110.435410
2937.361328	122.248909
2936.727295	141.944565
2936.093262	145.864960
2935.458984	145.842453
2934.824707	165.525345
2934.190186	149.737915
2933.555664	181.233704
2932.921143	153.630951
2932.286377	177.239120
2931.651367	196.901947
2931.016602	185.059265
2930.381592	185.030701
2929.746338	181.065918
2929.111084	165.295532
2928.475830	200.685013
2927.840332	196.719620
2927.204834	196.689255
2926.569336	208.458405
2925.933594	192.695938
2925.297607	192.666168
2924.661865	224.087265
2924.025879	216.191147
2923.389648	212.227615
2922.753418	231.842499
2922.117188	278.953796
2921.480713	231.770874
2920.844238	212.096497
2920.207764	247.407684
2919.571045	263.075470
2918.934082	239.479446
2918.297363	227.666595
2917.660156	227.631409
2917.023193	223.672150
2916.385986	258.948792
2915.748779	254.985901
2915.111328	235.335220
2914.473877	215.690613
2913.836182	250.946640
2913.198486	317.555237
2912.560791	254.788879
2911.922852	286.103271
2911.284912	266.465942
2910.646729	254.670715
2910.008545	301.640198
2909.370361	258.508759
2908.731934	301.546906
2908.093506	270.175568
2907.455078	270.133789
2906.816406	277.920776
2906.177490	313.101715
2905.538574	285.661133
2904.899658	293.442047
2904.260498	312.956451
2903.621338	387.223694
2902.982178	332.413330
2902.342773	312.811218
2901.703369	363.586761
2901.063721	336.167999
2900.424072	386.924194
2899.784424	375.141144
2899.144531	355.547516
2898.504639	410.183655
2897.864502	414.026062
2897.224365	413.961975
2896.583984	409.993195
2895.943848	406.025635
2895.303223	417.673248
2894.662842	429.317230
2894.021973	429.250763
2893.381348	397.970917
2892.740479	433.018921
2892.099609	393.947205
2891.458496	483.583038
2890.817383	440.616302
2890.176025	428.852112
2889.534668	424.887634
2888.893311	463.796295
2888.251709	487.105530
2887.610107	483.133820
2886.968262	471.372070
2886.326416	514.144409
2885.684570	506.275909
2885.042480	533.454224
2884.400391	541.158020
2883.758057	568.322510
2883.115723	630.506714
2882.473389	727.694397
2881.830811	789.834595
2881.188232	933.649841
2880.545410	1046.303711
2879.902588	1104.476563
2879.259766	1283.171631
2878.616699	1282.972778
2877.973633	1294.435425
2877.330322	1239.822510
2876.687012	1126.936646
2876.043457	971.346436
2875.399902	897.384949
2874.756348	831.214722
2874.112549	796.133606
2873.468750	671.754944
2872.824707	648.356506
2872.180664	636.610596
2871.536621	624.868347
2870.892334	582.085205
2870.248047	581.994934
2869.603760	508.196716
2868.958984	539.147949
2868.314453	535.186157
2867.669678	566.123596
2867.024902	577.666626
2866.379883	534.937073
2865.734863	558.108582
2865.089844	527.020752
2864.444580	546.311768
2863.799316	507.487457
2863.153809	515.155396
2862.508301	553.802917
2861.862549	553.716980
2861.216797	526.530151
2860.571045	565.157898
2859.925049	611.514282
2859.279053	580.461365
2858.632813	603.586121
2857.986572	591.886780
2857.340332	607.266663
2856.693848	672.917114
2856.047363	653.478943
2855.400635	699.771118
2854.753906	649.410400
2854.107178	738.203125
2853.460205	722.631104
2852.813232	772.747437
2852.166016	764.901123
2851.518799	791.820068
2850.871338	787.835144
2850.223877	864.939453
2849.576416	953.601990
2848.928711	961.174133
2848.281006	941.727051
2847.633301	933.862854
2846.985352	1049.467896
2846.337158	1103.313110
2845.688965	1060.713135
2845.040771	1156.961670
2844.392578	1137.502197
2843.743896	1064.073853
2843.095459	1133.293823
2842.446777	1133.117676
2841.798096	1025.042236
2841.149170	1051.853516
2840.500244	936.119629
2839.851074	951.381042
2839.202148	858.805603
2838.552734	754.707275
2837.903320	793.089417
2837.253906	642.841431
2836.604492	592.707642
2835.954834	596.463623
2835.304932	542.505066
2834.655029	465.481598
2834.005127	465.409180
2833.354980	411.496155
2832.704834	372.980530
2832.054688	330.632324
2831.404297	288.297272
2830.753906	272.878967
2830.103271	215.194977
2829.452637	249.741013
2828.801758	203.603287
2828.150879	176.684784
2827.500000	192.018784
2826.848877	134.392227
2826.197754	134.371307
2825.546387	149.704727
2824.895020	130.491501
2824.243408	115.121628
2823.591797	122.777283
2822.940186	118.921974
2822.288330	99.725479
2821.636475	80.534958
2820.984619	99.694427
2820.332520	76.676079
2819.680176	88.163757
2819.028076	84.317413
2818.375488	84.304283
2817.723145	95.785393
2817.070557	80.447197
2816.417725	61.283554
2815.764893	61.274010
2815.112061	91.896690
2814.458984	80.397079
2813.805908	65.073212
2813.152832	61.235828
2812.499512	45.919716
2811.845947	87.999069
2811.192383	57.381756
2810.538818	65.022522
2809.885010	61.188126
2809.231201	45.883942
2808.577393	45.876789
2807.923340	61.159519
2807.269287	49.684361
2806.614990	68.783005
2805.960693	34.386139
2805.306152	61.121384
2804.651611	61.111855
2803.997070	57.283428
2803.342285	68.729393
2802.687500	49.630157
2802.032471	64.890854
2801.377441	26.715595
2800.722412	38.159184
2800.067139	64.860489
2799.411621	38.147278
2798.756348	72.468521
2798.100586	45.762451
2797.445068	68.632973
2796.789307	53.372871
2796.133301	38.117531
2795.477539	76.223167
2794.821289	45.726761
2794.165283	34.289719
2793.509033	64.759361
2792.852539	38.087795
2792.196045	41.890038
2791.539551	76.151817
2790.882813	41.876961
2790.226074	64.708839
2789.569092	41.863888
2788.912109	41.857349
2788.255127	38.046196
2787.597900	45.648308
2786.940430	49.444611
2786.283203	26.619864
2785.625488	38.022438
2784.968018	64.628052
2784.310303	41.811619
2783.652588	45.605549
2782.994629	45.598427
2782.336426	41.792030
2781.678467	30.389456
2781.020264	26.586618
2780.361816	41.772446
2779.703369	30.375214
2779.044922	30.370468
2778.386230	34.161438
2777.727539	18.975611
2777.068604	49.328880
2776.409668	45.527233
2775.750732	49.313461
2775.091553	34.134754
2774.432373	26.545103
2773.772949	34.124084
2773.113525	64.446526
2772.453857	30.323036
2771.794189	34.108082
2771.134521	41.681137
2770.474609	41.674622
2769.814697	45.456116
2769.154541	60.598675
2768.494385	45.441898
2767.833984	34.076096
2767.173584	18.928204
2766.513184	41.635532
2765.852539	41.629021
2765.191895	56.757969
2764.531006	45.399273
2763.870117	26.478765
2763.209229	18.910444
2762.548096	45.377968
2761.886719	49.151775
2761.225586	45.363770
2760.563965	45.356670
2759.902588	37.791309
2759.240967	41.563938
2758.579102	52.891277
2757.917236	56.660355
2757.255371	18.883829
2756.593262	37.761745
2755.931152	30.204668
2755.269043	37.749928
2754.606689	41.518417
2753.944092	52.833351
2753.281494	37.732197
2752.618896	45.271549
2751.956055	30.176306
2751.293213	37.714478
2750.630371	49.021141
2749.967285	33.932400
2749.303955	26.387732
2748.640625	37.690857
2747.977295	60.295925
2747.313721	67.822289
2746.650146	52.742405
2745.986572	64.034317
2745.322754	22.596807
2744.658691	48.952076
2743.994873	41.414497
2743.330566	45.172375
2742.666504	75.275490
2742.002197	45.158218
2741.337646	48.913734
2740.673096	71.478104
2740.008545	67.705482
2739.343750	52.651566
2738.678955	60.163788
2738.013916	48.875416
2737.348877	60.144924
2736.683594	63.893967
2736.018311	71.399704
2735.353027	71.388512
2734.687500	56.350513
2734.021973	97.658913
2733.356201	90.132545
2732.690430	78.853615
2732.024658	97.612968
2731.358643	97.597664
2730.692383	97.582352
2730.026367	127.587677
2729.359863	97.551743
2728.693604	112.542046
2728.027100	90.019508
2727.360352	82.504936
2726.693604	108.739449
2726.026855	116.220482
2725.359863	123.699165
2724.692871	153.662720
2724.025635	153.638611
2723.358398	97.414070
2722.691162	93.652679
2722.023682	146.075241
2721.355957	153.542175
2720.688477	168.495453
2720.020508	142.262711
2719.352783	116.038200
2718.684814	149.703201
2718.016602	153.421692
2717.348389	138.431992
2716.680176	138.410248
2716.011719	127.167824
2715.343262	153.325348
2714.674561	123.388832
2714.005859	157.015671
2713.337158	145.777359
2712.668213	123.330696
2711.999023	145.731567
2711.329834	97.139114
2710.660645	115.801521
2709.991455	108.313438
2709.321777	123.233856
2708.652344	108.279404
2707.982666	85.863274
2707.312988	104.512779
2706.643066	123.156418
2705.972900	104.479927
2705.302979	100.732674
2704.632813	108.177345
2703.962402	82.052673
2703.291992	89.497932
2702.621582	108.126343
2701.950928	89.469803
2701.280273	100.637703
2700.609375	104.348618
2699.938477	78.249153
2699.267334	81.962418
2698.596191	78.224548
2697.925049	119.180565
2697.253662	59.580914
2696.582031	93.080536
2695.910645	81.897987
2695.239014	74.441002
2694.567139	66.986366
2693.895264	63.254948
2693.223145	66.965294
2692.551270	59.515339
2691.878906	52.067730
2691.206543	40.903923
2690.534180	33.461578
2689.861816	85.499466
2689.189209	44.601398
2688.516357	52.026775
2687.843506	59.449814
2687.170654	59.440456
2686.497559	33.429996
2685.824463	81.704903
2685.151123	59.412392
2684.477783	59.403042
2683.804199	33.408951
2683.130615	63.095860
2682.457031	63.085922
2681.783203	59.365639
2681.109375	55.646523
2680.435303	74.183678
2679.761230	37.085999
2679.086914	51.912220
2678.412598	63.026340
2677.738281	88.964348
2677.063721	63.006485
2676.389160	66.702240
2675.714355	25.935675
2675.039551	70.385742
2674.364502	62.966793
2673.689453	48.143490
2673.014404	74.055237
2672.339111	22.213070
2671.663574	59.225517
2670.988037	44.412140
2670.312500	59.206852
2669.636719	33.298607
2668.960938	48.090405
2668.285156	40.685467
2667.609131	55.471436
2666.932861	25.882589
2666.256592	55.453949
2665.580322	44.356163
2664.903809	55.436462
2664.227295	40.646996
2663.550781	29.556789
2662.874023	62.798275
2662.197021	40.627769
2661.520020	51.699917
2660.843018	47.999493
2660.165771	70.142036
2659.488525	40.602142
2658.811035	59.048347
2658.133545	55.349091
2657.455811	44.272289
2656.778076	33.198978
2656.100342	51.634705
2655.422363	66.377007
2654.744385	40.557323
2654.066162	77.415398
2653.387939	62.659718
2652.709473	70.020401
2652.031006	55.270538
2651.352539	73.682419
2650.673828	47.886013
2649.994873	40.512535
2649.316162	66.282776
2648.636963	55.226925
2647.958008	36.812138
2647.278809	62.570755
2646.599365	33.120464
2645.919922	58.871525
2645.240479	33.110004
2644.560791	33.104774
2643.880859	29.421820
2643.201172	44.125759
2642.520996	51.471920
2641.841064	58.815758
2641.160889	55.131065
2640.480469	58.797176
2639.800049	58.787888
2639.119629	33.062962
2638.438965	11.019246
2637.758301	36.725018
2637.077393	44.063057
2636.396484	36.713409
2635.715332	44.049129
2635.034180	25.691265
2634.353027	47.704807
2633.671631	22.014124
2632.989990	18.342203
2632.308350	22.007164
2631.626709	25.670967
2630.944824	44.000416
2630.262939	51.325699
2629.581055	36.655418
2628.898926	47.644508
2628.216553	36.643826
2627.534180	40.301834
2626.851807	29.305790
2626.169189	62.264954
2625.486572	29.296520
2624.803711	40.276344
2624.120850	36.609066
2623.437988	51.244587
2622.754883	65.875473
2622.071533	47.569202
2621.388184	21.951544
2620.704834	40.238129
2620.021240	21.944597
2619.337646	29.254833
2618.653809	40.219028
2617.969971	51.179756
2617.286133	62.137009
2616.602051	36.545399
2615.917725	47.501495
2615.233398	40.187210
2614.549072	25.569632
2613.864502	47.478939
2613.179932	43.819775
2612.495117	58.417118
2611.810303	69.359344
2611.125488	40.149052
2610.440430	40.142693
2609.755127	10.946274
2609.069824	58.370880
2608.384521	40.123623
2607.698975	61.999416
2607.013428	51.050255
2606.327637	58.333908
2605.641846	36.452915
2604.956055	61.960140
2604.270020	51.017914
2603.583740	47.366272
2602.897461	32.786839
2602.211182	40.066452
2601.524658	50.985584
2600.838135	47.336254
2600.151367	58.250774
2599.464600	36.400963
2598.777832	43.674232
2598.090820	36.389423
2597.403564	29.106924
2596.716309	58.204620
2596.029053	54.558182
2595.341553	29.093084
2594.654053	32.724529
2593.966309	32.719341
2593.278564	54.523586
2592.590820	21.805977
2591.902832	47.238789
2591.214600	32.698589
2590.526367	32.693405
2589.838135	36.320244
2589.149658	32.683033
2588.461182	58.093956
2587.772461	29.042370
2587.083740	58.075523
2586.394775	54.437164
2585.705811	43.542824
2585.016846	36.279926
2584.327637	54.411255
2583.638184	54.402622
2582.948975	47.141457
2582.259277	43.508286
2581.569824	61.626953
2580.879883	39.869934
2580.190186	39.863605
2579.500244	14.493555
2578.810059	47.096577
2578.119873	32.600147
2577.429688	43.459961
2576.739258	10.863265
2576.048584	21.723080
2575.358154	39.819324
2574.667236	25.335545
2573.976563	25.331522
2573.285645	43.418568
2572.594482	25.323475
2571.903320	21.702389
2571.212158	32.548412
2570.520752	50.622818
2569.829102	43.384094
2569.137451	46.991970
2568.445801	28.913540
2567.753906	36.136181
2567.062012	18.065220
2566.370117	25.287289
2565.677979	18.059479
2564.985596	25.279253
2564.293213	36.107479
2563.600830	39.711914
2562.908203	39.705601
2562.215332	14.436105
2561.522705	32.476074
2560.829590	32.470909
2560.136719	32.465748
2559.443604	21.640390
2558.750244	21.636950
2558.056885	18.027924
2557.363525	18.025057
2556.669922	28.835505
2555.976074	3.603865
2555.282227	36.032917
2554.588379	36.027184
2553.894287	0.000000
2553.200195	10.804717
2552.505859	21.605997
2551.811523	25.202986
2551.117188	21.599123
2550.422607	21.595686
2549.727783	21.592249
2549.032959	39.579491
2548.338135	17.987816
2547.643066	14.387962
2546.947998	39.560596
2546.252686	7.191691
2545.557373	28.762186
2544.861816	7.189402
2544.166260	32.347157
2543.470703	21.561338
2542.774902	10.778954
2542.078857	28.739298
2541.382813	25.142881
2540.686768	14.365073
2539.990479	17.953482
2539.294189	39.491371
2538.597656	14.358212
2537.901123	17.944906
2537.204346	35.884094
2536.507568	28.702703
2535.810791	7.174533
2535.113770	17.933475
2534.416504	25.102865
2533.719238	32.269970
2533.021973	28.679848
2532.324463	28.675278
2531.626953	17.919193
2530.929199	10.749803
2530.231445	14.330786
2529.533447	25.074877
2528.835449	14.326218
2528.137451	21.485901
2527.439209	10.741239
2526.740723	17.899210
2526.042236	17.896357
2525.343750	7.157402
2524.645020	39.359432
2523.946289	32.198036
2523.247314	28.615913
2522.548340	-3.576419
2521.849121	39.334332
2521.149902	39.328060
2520.450684	21.448248
2519.751221	39.315514
2519.051514	17.867838
2518.351807	32.156979
2517.652100	17.862139
2516.952148	25.003004
2516.252197	21.427727
2515.552002	17.853590
2514.851807	3.570148
2514.151367	35.695786
2513.450928	24.983063
2512.750244	35.684395
2512.049561	39.246567
2511.348877	24.971104
2510.647949	24.967117
2509.946777	32.095455
2509.245605	24.959146
2508.544434	10.695069
2507.843018	28.515633
2507.141602	14.255540
2506.439941	0.000000
2505.738281	17.813734
2505.036377	7.124356
2504.334473	17.808046
2503.632568	17.805202
2502.930420	21.362829
2502.228027	21.359417
2501.525635	17.796671
2500.823242	14.235063
2500.120605	7.116395
2499.417969	32.018658
2498.715088	24.899424
2498.012207	21.338953
2497.309082	3.555924
2496.605957	24.887489
2495.902588	7.109575
2495.199219	17.771097
2494.495605	17.768257
2493.791992	17.765417
2493.088379	53.287731
2492.384521	7.103895
2491.680664	31.962418
2490.976563	14.203248
2490.272461	35.502445
2489.568115	-7.099354
2488.863770	24.843765
2488.159180	39.033958
2487.454590	31.931768
2486.749756	21.284441
2486.044922	17.734198
2485.339844	28.370178
2484.634766	21.274231
2483.929688	35.451378
2483.224365	38.990280
2482.519043	24.808027
2481.813477	14.173747
2481.107666	7.085740
2480.402100	17.711515
2479.696045	3.541736
2478.990234	28.329357
2478.284180	21.243618
2477.577881	31.860327
2476.871582	31.855228
2476.165039	28.311226
2475.458496	21.230021
2474.751953	38.915474
2474.045166	31.834837
2473.338379	10.609914
2472.631348	38.896790
2471.924072	42.426067
2471.217041	31.814455
2470.509521	14.137493
2469.802246	17.669037
2469.094482	31.799173
2468.386963	17.663378
2467.679199	3.532110
2466.971191	24.720808
2466.263184	24.716848
2465.554932	24.712891
2464.846680	38.828320
2464.138428	35.292816
2463.429932	7.057433
2462.721436	31.753359
2462.012695	10.582757
2461.303955	17.635101
2460.594971	42.317463
2459.885986	10.577670
2459.176758	35.253250
2458.467529	28.198080
2457.758057	24.669365
2457.048584	45.807190
2456.338867	24.661457
2455.629150	31.702503
2454.919434	14.087743
2454.209473	21.128225
2453.499512	0.000000
2452.789307	31.682177
2452.078857	24.637741
2451.368408	21.114677
2450.657959	28.148388
2449.947266	24.625889
2449.236572	21.104519
2448.525879	31.651701
2447.814697	14.065166
2447.103760	24.610092
2446.392578	24.606144
2445.681152	17.572998
2444.969727	14.056142
2444.258301	35.134716
2443.546631	21.077448
2442.834717	3.512344
2442.122803	21.070683
2441.410889	28.089735
2440.698730	14.042613
2439.986572	31.590809
2439.274170	10.528579
2438.561768	38.598595
2437.849121	14.033599
2437.136475	24.554855
2436.423584	38.580006
2435.710693	35.067101
2434.997803	17.530735
2434.284424	21.033503
2433.571289	21.030125
2432.857910	3.504458
2432.144287	17.519476
2431.430908	21.019995
2430.717041	21.016617
2430.003174	28.017656
2429.289307	28.013155
2428.575195	31.509735
2427.861084	42.006229
2427.146729	17.499784
2426.432373	27.995155
2425.717773	10.496496
2425.003174	41.979237
2424.288330	34.977077
2423.573486	24.480019
2422.858643	17.482916
2422.143555	17.480106
2421.428223	27.963675
2420.712891	31.454077
2419.997559	34.943356
2419.281982	27.950190
2418.566162	31.438908
2417.850586	17.463251
2417.134521	20.952532
2416.418457	27.932217
2415.702393	17.454828
2414.986084	41.884850
2414.269775	27.918741
2413.553223	34.892815
2412.836670	17.443600
2412.120117	20.928953
2411.403076	41.851173
2410.686279	31.383329
2409.969238	27.891804
2409.251953	24.401402
2408.534668	13.941415
2407.817383	10.454378
2407.099854	31.358088
2406.382080	17.418356
2405.664307	24.381773
2404.946533	20.895300
2404.228516	38.301884
2403.510498	27.851431
2402.792236	31.327816
2402.073975	13.921231
2401.355469	38.277222
2400.636963	34.791874
2399.918213	24.350389
2399.199463	20.868401
2398.480469	45.207588
2397.761475	6.953894
2397.042480	13.905547
2396.323242	6.951653
2395.603760	31.277403
2394.884277	31.272364
2394.164795	13.896589
2393.445068	38.209465
2392.725098	13.892112
2392.005127	27.779747
2391.285156	24.303362
2390.564941	17.356747
2389.844727	17.353951
2389.124268	13.880922
2388.403809	17.348356
2387.683105	17.345560
2386.962402	13.874211
2386.241455	17.339970
2385.520508	6.934869
2384.799316	20.801254
2384.078125	27.730534
2383.356689	0.000000
2382.635254	3.465199
2381.913818	34.646404
2381.192139	6.928163
2380.470215	-6.927046
2379.748291	27.703714
2379.026367	20.774435
2378.304199	24.232931
2377.581787	27.690311
2376.859375	13.842922
2376.136963	41.522068
2375.414307	20.757683
2374.691650	24.213390
2373.968750	34.584976
2373.245850	27.663517
2372.522705	20.744289
2371.799316	17.284119
2371.076172	6.912531
2370.352783	6.911416
2369.629150	41.461800
2368.905518	27.636738
2368.181641	13.816138
2367.457764	27.627815
2366.733643	27.623356
2366.009521	10.357086
2365.285400	37.969849
2364.561035	6.902494
2363.836426	17.253448
2363.111816	27.601061
2362.387207	31.046179
2361.662354	13.796073
2360.937256	20.690767
2360.212158	10.343712
2359.487061	31.026125
2358.761719	31.021112
2358.036377	24.123634
2357.310791	13.782706
2356.584961	17.225599
2355.859375	31.001068
2355.133301	27.552052
2354.407471	13.773800
2353.681152	10.328680
2352.955078	-6.884674
2352.228516	20.650684
2351.502197	24.088570
2350.775635	20.644009
2350.048828	20.640671
2349.322021	27.516445
2348.594971	20.633997
2347.867920	24.069103
2347.140869	27.503099
2346.413330	17.186657
2345.686035	20.620653
2344.958496	27.489759
2344.230713	27.485313
2343.502930	10.305326
2342.775146	13.738211
2342.047119	24.037979
2341.319092	27.467533
2340.590820	37.761749
2339.862305	37.755638
2339.133789	20.590652
2338.405273	20.587320
2337.676514	24.014654
2336.947754	27.440878
2336.218750	10.288664
2335.489746	20.573997
2334.760498	30.856001
2334.031250	17.139448
2333.301758	6.854669
2332.572266	17.133900
2331.842529	13.704900
2331.112793	27.405363
2330.382813	13.700462
2329.652832	17.122805
2328.922607	30.816059
2328.192383	27.387617
2327.462158	17.114489
2326.731689	17.111715
2326.000977	27.374311
2325.270264	23.948643
2324.539307	23.944763
2323.808350	20.520758
2323.077393	3.419572
2322.346191	27.352146
2321.614746	27.347713
2320.883301	20.507462
2320.151855	34.173565
2319.420166	23.917620
2318.688232	23.913742
2317.956299	6.831390
2317.224365	17.075708
2316.492188	34.145882
2315.760010	10.242104
2315.027588	37.548294
2314.295166	10.238783
2313.562500	20.474247
2312.829590	27.294569
2312.096924	27.290144
2311.363770	27.285719
2310.630615	23.871132
2309.897461	3.409609
2309.164063	40.908669
2308.430664	17.042513
2307.697021	34.079498
2306.963379	10.222191
2306.229492	17.034222
2305.495605	10.218875
2304.761719	27.245911
2304.027344	23.836304
2303.293213	30.641705
2302.558838	17.020407
2301.824219	10.210587
2301.089600	20.417860
2300.354736	30.621819
2299.619873	37.420593
2298.885010	3.401320
2298.149658	23.805374
2297.414551	20.401295
2296.679199	33.996635
2295.943604	23.793781
2295.208008	16.992800
2294.472412	23.786057
2293.736572	27.179649
2293.000488	10.190714
2292.264404	23.774469
2291.528320	6.791603
2290.791992	20.371498
2290.055420	13.578793
2289.318848	37.335613
2288.582275	6.787191
2287.845459	6.786088
2287.108398	30.532434
2286.371582	27.135532
2285.634277	40.696686
2284.896973	23.735876
2284.159668	20.341730
2283.422119	40.676849
2282.684570	33.891865
2281.946777	30.497721
2281.208740	30.492764
2280.470703	30.487806
2279.732666	30.482849
2278.994385	20.318596
2278.256104	37.244705
2277.517578	30.467985
2276.779053	27.078249
2276.040283	16.921154
2275.301514	30.453123
2274.562500	43.980690
2273.823486	16.912899
2273.084229	23.674208
2272.344971	20.288877
2271.605469	20.285578
2270.865967	30.423416
2270.126221	23.658808
2269.386475	20.275679
2268.646484	20.272379
2267.906494	27.025440
2267.166260	16.888151
2266.426025	20.262484
2265.685547	20.259188
2264.945068	30.383835
2264.204346	50.631481
2263.463623	3.374883
2262.722656	10.123000
2261.981689	30.364056
2261.240723	40.478817
2260.499268	33.726856
2259.758057	3.372136
2259.016602	30.344286
2258.274902	10.113115
2257.533203	20.222937
2256.791260	16.849703
2256.049316	20.216349
2255.307129	26.950743
2254.564941	20.209764
2253.822754	13.470982
2253.080322	40.406361
2252.337646	20.199888
2251.594971	23.562698
2250.852051	30.289961
2250.109131	20.190018
2249.366211	16.822273
2248.623047	23.547342
2247.879639	40.360294
2247.136230	36.990906
2246.392578	36.984879
2245.648926	36.978851
2244.905273	23.528160
2244.161377	36.966793
2243.417236	30.240627
2242.673096	20.157131
2241.928955	30.230768
2241.184570	33.584267
2240.439941	50.368183
2239.695313	26.858650
2238.950439	43.638187
2238.205566	33.562363
2237.460693	36.912575
2236.715576	23.485991
2235.970215	23.482159
2235.224854	30.186422
2234.479492	3.353500
2233.733887	30.176573
2232.988037	36.876461
2232.242188	30.166725
2231.496338	30.161802
2230.750244	20.104588
2230.003906	26.801741
2229.257568	30.147038
2228.511230	30.142117
2227.764648	26.788620
2227.017822	33.480309
2226.270996	46.864780
2225.523926	33.469376
2224.776855	30.117521
2224.029785	43.495983
2223.282471	30.107687
2222.534912	36.792274
2221.787354	30.097855
2221.039795	26.749279
2220.291992	26.744909
2219.543945	33.425678
2218.795898	46.788303
2218.047852	36.756233
2217.299561	20.045578
2216.551025	40.084606
2215.802490	20.039030
2215.053955	36.732216
2214.305176	36.726215
2213.556152	33.382011
2212.807129	43.389523
2212.058105	33.371101
2211.308838	43.375343
2210.559326	26.688156
2209.809814	10.006422
2209.060303	40.019146
2208.310547	36.678219
2207.560547	43.339901
2206.810547	26.666348
2206.060303	36.660233
2205.310059	13.328814
2204.559814	33.316586
2203.809326	39.973362
2203.058594	23.313982
2202.307861	26.640192
2201.557129	23.306355
2200.806152	19.973608
2200.054932	16.641951
2199.303711	29.950611
2198.552246	29.945709
2197.800781	9.980270
2197.049316	23.283487
2196.297607	43.233685
2195.545654	33.251240
2194.793701	49.868694
2194.041504	19.944214
2193.289307	36.558407
2192.537109	26.583580
2191.784668	36.546436
2191.031982	23.253017
2190.279297	23.249210
2189.526367	33.207718
2188.773438	36.522511
2188.020508	39.836216
2187.267090	49.787113
2186.513916	19.911585
2185.760498	33.180538
2185.006836	33.175106
2184.253174	36.486637
2183.499268	53.062778
2182.745361	26.527044
2181.991211	46.414722
2181.237061	33.147942
2180.482666	46.399513
2179.728271	49.705620
2178.973877	29.818483
2178.218994	43.064087
2177.464355	52.993267
2176.709229	69.542259
2175.954346	36.420929
2175.198975	52.967213
2174.443848	36.408989
2173.688232	29.784290
2172.932861	52.941170
2172.177002	46.315926
2171.421387	29.769644
2170.665283	36.379154
2169.909424	33.066536
2169.153076	36.367222
2168.396729	39.666828
2167.640381	29.745241
2166.883789	29.740362
2166.127197	33.039429
2165.370361	49.551010
2164.613525	46.240025
2163.856445	33.023170
2163.099365	29.715977
2162.342041	26.409866
2161.584473	36.307610
2160.826904	42.901951
2160.069336	9.898826
2159.311523	26.392536
2158.553711	26.388205
2157.795654	36.277824
2157.037354	19.784657
2156.279053	39.562817
2155.520752	29.667242
2154.762207	16.479095
2154.003662	46.133892
2153.244873	29.652632
2152.485840	19.765175
2151.726807	23.055584
2150.967773	16.465570
2150.208252	26.340586
2149.448975	36.212357
2148.689453	29.623425
2147.929688	13.163804
2147.169922	23.032873
2146.410156	32.898697
2145.650146	49.339939
2144.889893	16.443945
2144.129639	32.882484
2143.369141	16.438540
2142.608643	32.871677
2141.847900	49.299416
2141.087158	36.146961
2140.326416	13.142189
2139.565186	19.710043
2138.804199	6.568934
2138.042725	42.691055
2137.281494	26.267099
2136.519775	32.828476
2135.758301	-3.282308
2134.996338	19.690609
2134.234619	19.687370
2133.472412	29.526199
2132.710449	19.680897
2131.947998	22.957270
2131.185547	6.558141
2130.423096	26.228249
2129.660400	32.779919
2128.897705	26.219620
2128.134766	32.769131
2127.371826	36.040115
2126.608643	32.758350
2125.845215	26.202368
2125.081787	22.923298
2124.318359	32.742180
2123.554688	39.284149
2122.790771	32.731403
2122.026855	29.453415
2121.262939	19.632378
2120.498779	35.986767
2119.734375	19.625914
2118.969971	35.974918
2118.205322	19.619452
2117.440674	42.501812
2116.676025	29.419487
2115.911133	32.682934
2115.145996	32.677551
2114.380859	22.870520
2113.615479	42.466827
2112.850098	35.927551
2112.084473	16.328014
2111.318848	42.445843
2110.552979	13.058107
2109.787109	22.847923
2109.020996	35.897964
2108.254883	16.314568
2107.488525	35.886135
2106.722168	26.094706
2105.955566	35.874306
2105.188965	29.346869
2104.422119	42.382935
2103.655029	22.817818
2102.887939	26.073208
2102.120850	22.810295
2101.353516	16.290382
2100.585938	45.605549
2099.818359	9.771007
2099.050781	39.077579
2098.282959	19.535568
2097.514893	39.064693
2096.746826	22.783979
2095.978760	9.762952
2095.210449	22.776463
2094.441895	35.785683
2093.673340	32.527069
2092.904541	35.773876
2092.135742	32.516338
2091.366699	35.762070
2090.597656	45.507851
2089.828369	13.000098
2089.059082	35.744370
2088.289551	45.485325
2087.520020	12.993663
2086.750244	29.230915
2085.980469	25.978746
2085.210449	19.480843
2084.440186	42.201527
2083.670166	16.228676
2082.899658	45.432793
2082.129150	38.935963
2081.358643	22.708895
2080.587891	38.923103
2079.816895	3.243056
2079.045898	12.970083
2078.274902	45.387794
2077.503662	35.655945
2076.732178	22.686399
2075.960693	32.403790
2075.188965	32.398434
2074.417236	35.632389
2073.645264	42.104050
2072.873291	45.335331
2072.101074	42.090137
2071.328857	22.660173
2070.556396	29.129694
2069.783936	29.124880
2069.011230	12.942251
2068.238525	16.175140
2067.465576	29.110439
2066.692627	35.573544
2065.919434	35.567661
2065.145996	29.096003
2064.372559	16.161774
2063.599121	32.318203
2062.825439	42.006714
2062.051514	35.538265
2061.277588	19.381302
2060.503662	6.459365
2059.729248	32.291485
2058.955078	3.228614
2058.180664	16.140402
2057.406006	41.958099
2056.631348	35.497135
2055.856445	25.811827
2055.081543	45.163223
2054.306396	35.479515
2053.531250	9.674630
2052.755859	38.692116
2051.980225	38.685715
2051.204590	22.562931
2050.428955	12.890969
2049.653076	19.333252
2048.877197	32.216755
2048.101074	38.653702
2047.324707	38.647305
2046.548340	32.200752
2045.771851	16.097712
2044.995239	41.847118
2044.218506	32.184757
2043.441528	38.615314
2042.664551	16.087049
2041.887329	6.433754
2041.110107	41.812473
2040.332642	16.079056
2039.555176	22.506948
2038.777466	38.576950
2037.999634	25.713705
2037.221802	38.564167
2036.443726	54.623516
2035.665527	35.338772
2034.887207	54.605412
2034.108765	41.750160
2033.330200	22.477129
2032.551514	25.683887
2031.772705	25.679630
2030.993774	19.256531
2030.214600	28.880007
2029.435425	12.833430
2028.656128	32.078255
2027.876587	32.072937
2027.097046	28.860855
2026.317261	38.474758
2025.537476	51.291172
2024.757446	28.846498
2023.977295	38.455616
2023.197021	28.836929
2022.416626	22.425001
2021.636230	19.218241
2020.855591	25.620070
2020.074707	41.625706
2019.293823	38.417351
2018.512817	38.410976
2017.731689	38.404602
2016.950439	28.798672
2016.168945	28.793892
2015.387451	38.385483
2014.605713	35.180851
2013.823975	38.372742
2013.041992	44.760765
2012.260010	15.983334
2011.477783	25.569086
2010.695435	47.934078
2009.912964	44.731045
2009.130371	38.334526
2008.347656	54.298225
2007.564819	35.128311
2006.781860	51.087238
2005.998779	31.924221
2005.215576	28.727026
2004.432129	35.104977
2003.648682	31.908312
2002.864990	35.093311
2002.081299	28.707939
2001.297363	25.513927
2000.513428	28.698399
1999.729248	25.505449
1998.944946	47.814766
1998.160522	25.496971
1997.375977	41.425690
1996.591309	63.721237
1995.806519	35.040855
1995.021606	41.405033
1994.236572	35.029205
1993.451416	47.759155
1992.666016	38.200970
1991.880615	35.011734
1991.094971	60.464752
1990.309326	28.636436
1989.523438	44.538158
1988.737549	41.349983
1987.951416	38.162865
1987.165161	34.976807
1986.378784	41.329350
1985.592285	54.037079
1984.805664	22.246861
1984.018921	34.953533
1983.232056	47.655979
1982.444946	47.648048
1981.657837	57.168140
1980.870605	44.456711
1980.083130	41.274361
1979.295654	28.569799
1978.507935	34.912830
1977.720093	34.907021
1976.932129	41.246883
1976.144165	31.723087
1975.355957	31.717806
1974.567627	22.198767
1973.779053	38.048691
1972.990479	44.382748
1972.201782	41.205688
1971.412964	28.522263
1970.623901	38.023350
1969.834839	38.017017
1969.045532	38.010681
1968.256226	31.670292
1967.466675	41.164520
1966.677002	44.323635
1965.887207	25.323570
1965.097290	41.143944
1964.307251	53.794655
1963.517090	41.130230
1962.726807	47.450050
1961.936401	44.279331
1961.145874	34.785103
1960.355103	31.617550
1959.564331	44.257191
1958.773315	28.446308
1957.982178	56.883129
1957.191040	50.554352
1956.399658	41.068562
1955.608154	53.696083
1954.816528	34.738731
1954.024780	53.678173
1953.232910	59.983246
1952.440918	31.564863
1951.648682	63.119198
1950.856445	44.176067
1950.063965	34.703976
1949.271484	34.698185
1948.478760	44.153957
1947.685913	50.453247
1946.893066	47.292023
1946.099976	59.893234
1945.306763	56.731487
1944.513428	28.361010
1943.719971	66.164642
1942.926270	50.402740
1942.132568	50.394325
1941.338745	31.491196
1940.544678	50.377499
1939.750610	44.072952
1938.956299	40.918049
1938.161865	50.352268
1937.367310	53.490349
1936.572632	56.627380
1935.777832	40.890724
1934.982910	59.753380
1934.187866	44.021454
1933.392700	31.438641
1932.597290	62.866779
1931.801880	50.285019
1931.006226	40.849751
1930.210571	40.842926
1929.414673	43.977341
1928.618652	53.392132
1927.822510	34.542076
1927.026245	53.374283
1926.229858	50.226223
1925.433350	56.495056
1924.636719	81.590332
1923.839844	56.476170
1923.042969	56.466728
1922.245850	50.184254
1921.448730	53.311852
1920.651367	47.032005
1919.853882	75.238625
1919.056274	59.553947
1918.258545	53.276199
1917.460693	40.733807
1916.662720	50.125530
1915.864624	68.911079
1915.066284	40.713367
1914.267944	72.019295
1913.469360	56.353497
1912.670776	53.213840
1911.871948	53.204933
1911.072998	81.358635
1910.273926	65.701744
1909.474731	59.434486
1908.675415	71.934967
1907.875977	50.033340
1907.076294	59.404648
1906.276611	71.898849
1905.476807	50.008217
1904.676758	53.124836
1903.876587	65.613808
1903.076294	68.726761
1902.275879	53.098152
1901.475342	65.580849
1900.674683	71.814613
1899.873901	68.680733
1899.072998	46.819927
1898.271851	65.536919
1897.470703	43.683960
1896.669312	59.275444
1895.867920	65.503983
1895.066284	53.018150
1894.264526	59.245651
1893.462646	53.000381
1892.660645	68.577240
1891.858521	62.332493
1891.056152	52.973740
1890.253784	68.542763
1889.451172	46.725864
1888.648560	65.405243
1887.845703	77.850334
1887.042725	56.042843
1886.239624	74.711258
1885.436401	62.248943
1884.633057	59.126579
1883.829590	77.785080
1883.025879	62.217628
1882.222168	99.531509
1881.418213	43.537731
1880.614258	52.858376
1879.810059	65.284691
1879.005737	49.732368
1878.201294	46.616276
1877.396729	80.787987
1876.592041	71.454300
1875.787231	65.229935
1874.982178	52.796326
1874.177124	62.102898
1873.371826	65.197098
1872.566406	62.082054
1871.760986	65.175209
1870.955322	46.545910
1870.149536	62.050793
1869.343506	49.632298
1868.537476	89.943436
1867.731323	55.817585
1866.924927	65.109581
1866.118530	58.898777
1865.311890	58.888885
1864.505127	71.274574
1863.698242	55.770729
1862.891235	83.642044
1862.084106	58.849327
1861.276855	52.645817
1860.469482	55.733261
1859.661865	83.585846
1858.854126	65.000290
1858.046387	64.989365
1857.238403	77.355293
1856.430298	71.154907
1855.622070	77.329292
1854.813721	71.130989
1854.005249	77.303299
1853.196533	74.198692
1852.387817	80.368401
1851.578857	83.445457
1850.769775	61.801060
1849.960693	64.880203
1849.151367	98.848442
1848.341919	64.858383
1847.532227	52.495575
1846.722534	77.186386
1845.912720	58.651787
1845.102661	61.728340
1844.292603	64.803856
1843.482300	67.878326
1842.671875	64.782051
1841.861328	70.939827
1841.050659	83.263176
1840.239868	61.666050
1839.428833	61.655674
1838.617798	80.138885
1837.806519	77.043648
1836.995117	64.705772
1836.183716	52.372047
1835.372070	55.443420
1834.560303	95.469818
1833.748291	55.424751
1832.936279	67.729958
1832.124146	70.796669
1831.311768	73.862343
1830.499390	76.926987
1829.686768	76.914032
1828.874023	58.444817
1828.061157	79.963646
1827.248169	52.275116
1826.434937	70.713242
1825.621704	98.367065
1824.808228	67.615967
1823.994751	55.312832
1823.181030	95.244934
1822.367188	67.581795
1821.553223	82.927315
1820.739136	98.267654
1819.924927	79.829018
1819.110474	85.955215
1818.296021	98.217972
1817.481323	85.926239
1816.666626	76.706924
1815.851685	92.032791
1815.036621	101.219002
1814.221436	70.534676
1813.406006	82.787613
1812.590576	73.576584
1811.774902	76.629349
1810.959229	67.422455
1810.143311	79.667641
1809.327271	98.035942
1808.511108	82.703873
1807.694824	73.502151
1806.878418	97.986328
1806.061768	94.908241
1805.245117	58.159752
1804.428223	85.694641
1803.611206	70.380150
1802.794067	88.725212
1801.976807	70.356392
1801.159424	97.870636
1800.341919	103.970001
1799.524170	82.550468
1798.706421	76.422714
1797.888428	116.142921
1797.070313	110.011559
1796.252075	94.716179
1795.433716	100.809868
1794.615234	109.955833
1793.796509	91.614388
1792.977783	91.598915
1792.158813	85.477875
1791.339844	70.202110
1790.520630	73.242004
1789.701294	91.537033
1788.881714	100.673729
1788.062134	91.506104
1787.242432	82.341576
1786.422485	106.721046
1785.602417	85.362411
1784.782349	76.203552
1783.962036	85.333557
1783.141479	91.413353
1782.320923	82.258110
1781.500244	85.290291
1780.679321	97.458138
1779.858398	82.216400
1779.037231	73.068886
1778.215942	88.276642
1777.394531	66.957161
1776.572998	94.332771
1775.751221	88.231865
1774.929443	91.258904
1774.107422	82.119118
1773.285278	79.064293
1772.463013	97.293442
1771.640625	100.316887
1770.818115	97.260521
1769.995483	75.971924
1769.172607	97.227608
1768.349731	94.173309
1767.526611	103.269371
1766.703369	81.994156
1765.880005	100.198112
1765.056519	66.787437
1764.232910	94.093636
1763.409058	91.042946
1762.585083	100.130287
1761.761108	75.843430
1760.936890	87.963486
1760.112549	87.948593
1759.288086	100.062485
1758.463379	106.108902
1757.638672	60.623390
1756.813721	100.011650
1755.988647	106.054993
1755.163574	99.977768
1754.338257	84.815254
1753.512695	69.657867
1752.687134	81.758423
1751.861328	87.799728
1751.035522	90.811913
1750.209473	108.955826
1749.383301	78.676987
1748.557007	99.842323
1747.730591	114.950462
1746.903931	99.808479
1746.077271	96.767570
1745.250366	108.845062
1744.423340	114.872536
1743.596313	108.808159
1742.768921	96.701965
1741.941528	84.599869
1741.114014	90.627350
1740.286255	90.611977
1739.458374	87.576721
1738.630493	75.484367
1737.802368	108.679054
1736.973999	72.440414
1736.145630	81.481636
1735.317139	93.537117
1734.488403	108.605324
1733.659546	108.586891
1732.830566	81.426353
1732.001465	69.351418
1731.172241	90.443016
1730.342896	93.441925
1729.513306	99.453552
1728.683594	108.476364
1727.853882	69.292580
1727.023926	102.415115
1726.193726	87.339241
1725.363525	105.391533
1724.533203	96.341606
1723.702637	81.274429
1722.871948	99.318542
1722.041138	105.319962
1721.210205	111.319336
1720.379150	87.235466
1719.547974	90.228256
1718.716553	96.227127
1717.885010	87.191017
1717.053467	120.243042
1716.221558	123.228172
1715.389648	99.166801
1714.557617	93.140862
1713.725342	93.125031
1712.893066	117.137383
1712.060547	105.105423
1711.227905	105.087563
1710.395142	126.083633
1709.562256	99.048874
1708.729126	96.031067
1707.895874	111.017036
1707.062622	74.998756
1706.229126	92.982643
1705.395508	83.970047
1704.561646	113.939964
1703.727783	134.905960
1702.893677	104.909012
1702.059570	80.916039
1701.225220	98.880562
1700.390747	116.838966
1699.556030	83.870110
1698.721313	110.809509
1697.886353	83.841576
1697.051392	101.790306
1696.216187	101.772980
1695.380859	107.741287
1694.545410	110.715256
1693.709717	89.753845
1692.874023	89.738571
1692.038086	119.631058
1691.202026	98.678818
1690.365845	101.651779
1689.529541	110.602219
1688.692993	92.650940
1687.856445	122.517479
1687.019653	119.508888
1686.182739	98.578041
1685.345703	131.415009
1684.508545	83.613487
1683.671143	89.570618
1682.833740	77.614647
1681.996094	110.432793
1681.158325	113.398140
1680.320435	101.444206
1679.482422	104.410065
1678.644287	95.444366
1677.805908	95.428101
1676.967407	86.466972
1676.128784	101.357796
1675.290039	92.398712
1674.451172	98.343147
1673.612183	134.081436
1672.772949	119.163177
1671.933594	125.100006
1671.094116	83.385780
1670.254517	110.169563
1669.414795	110.150780
1668.574829	110.131996
1667.734863	122.017342
1666.894653	110.094429
1666.054321	92.225548
1665.213867	107.082359
1664.373169	101.116089
1663.532471	118.939812
1662.691528	89.189636
1661.850464	115.926743
1661.009277	101.047096
1660.167969	98.058388
1659.326538	121.809326
1658.484863	115.847633
1657.643066	115.827858
1656.801147	106.899773
1655.959106	109.850456
1655.116943	130.610672
1654.274658	83.101692
1653.432129	115.729019
1652.589478	109.775452
1651.746704	103.823914
1650.903809	124.567413
1650.060791	115.649986
1649.217529	106.735603
1648.374146	133.396713
1647.530640	109.663010
1646.687012	106.680916
1645.843262	115.551247
1644.999390	112.569160
1644.155273	139.206482
1643.311035	115.492027
1642.466675	94.746498
1641.622192	82.889015
1640.777588	124.312271
1639.932739	112.453789
1639.087769	106.516953
1638.242798	118.331940
1637.397461	127.185089
1636.552124	106.462334
1635.706665	112.357697
1634.860962	135.988693
1634.015137	124.142357
1633.169189	112.300072
1632.323120	115.235626
1631.476929	127.032928
1630.630493	112.242455
1629.783936	129.942719
1628.937256	118.109535
1628.090454	106.280396
1627.243530	121.020859
1626.396484	123.951370
1625.549194	141.634476
1624.701782	115.058319
1623.854248	117.988335
1623.006592	109.120529
1622.158691	129.742752
1621.310791	97.290405
1620.462646	126.750648
1619.614380	114.940208
1618.765991	117.867210
1617.917358	123.739380
1617.068726	132.555206
1616.219849	120.751846
1615.370850	117.786499
1614.521729	120.710487
1613.672363	135.408081
1612.822998	150.100647
1611.973389	117.705826
1611.123657	132.396378
1610.273804	132.373688
1609.423828	120.586479
1608.573608	126.447083
1607.723389	126.425415
1606.872925	114.645264
1606.022339	149.895035
1605.171509	132.237656
1604.320679	129.276886
1603.469604	149.817978
1602.618408	152.729401
1601.767090	126.273811
1600.915649	120.379974
1600.064087	102.745773
1599.212280	111.533424
1598.360352	123.252647
1597.508301	143.770096
1596.656128	149.612610
1595.803833	129.055405
1594.951294	123.168121
1594.098633	129.011139
1593.245850	117.262733
1592.392944	137.760071
1591.539795	111.361374
1590.686646	134.782745
1589.833252	123.041397
1588.979736	125.949333
1588.126099	122.999168
1587.272217	111.265869
1586.418335	131.739594
1585.564209	134.644028
1584.709961	149.253616
1583.855591	117.041573
1583.000977	125.798088
1582.146362	93.601112
1581.291504	111.132233
1580.436523	131.581360
1579.581421	119.864655
1578.726074	111.074989
1577.870605	111.055916
1577.015137	140.257065
1576.159424	134.389938
1575.303467	116.840736
1574.447510	134.343765
1573.591309	140.160721
1572.734985	105.102478
1571.878540	102.165405
1571.021973	131.332947
1570.165161	134.228394
1569.308350	137.122833
1568.451294	125.431236
1567.594116	128.326187
1566.736694	125.388123
1565.879272	125.366570
1565.021606	128.260025
1564.163818	134.066971
1563.305908	142.785904
1562.447876	128.193878
1561.589600	131.084824
1560.731201	142.712265
1559.872681	160.159683
1559.014038	133.928696
1558.155273	151.371613
1557.296265	142.614105
1556.437134	145.499557
1555.577881	122.198608
1554.718506	122.177582
1553.859009	113.431091
1552.999268	151.215424
1552.139404	157.004379
1551.279419	133.721466
1550.419312	156.950348
1549.558960	124.957474
1548.698608	130.746933
1547.838013	122.009468
1546.977173	153.937820
1546.116333	130.679428
1545.255249	124.849953
1544.394165	124.828453
1543.532837	162.539291
1542.671265	150.903351
1541.809692	139.271408
1540.947876	130.544464
1540.085938	121.820511
1539.223877	142.099457
1538.361694	139.175476
1537.499268	130.454529
1536.636841	171.010925
1535.774170	113.021645
1534.911377	139.079590
1534.048340	147.746597
1533.185303	141.928146
1532.322021	144.799683
1531.458618	162.147690
1530.594971	167.909744
1529.731323	121.568848
1528.867432	164.957855
1528.003418	147.568420
1527.139282	153.328979
1526.275024	130.162537
1525.410522	133.032089
1524.545898	182.164703
1523.681152	124.313202
1522.816284	158.977829
1521.951172	135.830353
1521.086060	138.696426
1520.220703	173.340622
1519.355225	150.202621
1518.489502	147.288696
1517.623779	161.700867
1516.757813	147.237869
1515.891724	170.304611
1515.025513	161.617172
1514.159058	161.589279
1513.292480	164.446411
1512.425781	129.803696
1511.558960	170.157700
1510.692017	147.060074
1509.824829	147.034683
1508.957520	141.244232
1508.090088	118.163544
1507.222534	152.721619
1506.354736	149.814194
1505.486938	135.385605
1504.618896	158.402603
1503.750610	152.616135
1502.882324	143.952621
1502.013794	149.684860
1501.145142	152.537064
1500.276367	164.020950
1499.407471	166.869675
1498.538330	166.840836
1497.669067	140.927383
1496.799683	152.405319
1495.930176	163.879272
1495.060547	183.972992
1494.190674	163.822632
1493.320679	155.173553
1492.450562	181.004517
1491.580200	155.119904
1490.709717	186.686127
1489.839233	172.295853
1488.968384	195.234863
1488.097534	183.718689
1487.226440	195.167343
1486.355347	163.567871
1485.483887	212.314529
1484.612427	215.146423
1483.740845	189.296097
1482.869019	215.071991
1481.997070	215.034775
1481.124878	189.197861
1480.252686	214.960373
1479.380249	266.504730
1478.507690	240.672302
1477.635010	269.277161
1476.762207	292.143768
1475.889160	274.911255
1475.015991	254.821518
1474.142700	291.992096
1473.269165	289.079376
1472.395630	343.401154
1471.521851	349.064056
1470.647949	394.774567
1469.773804	406.146973
1468.899658	451.831757
1468.025269	551.825439
1467.150757	528.860229
1466.276001	571.641785
1465.401245	585.831299
1464.526245	625.730896
1463.651123	651.332947
1462.775879	659.788818
1461.900391	716.789124
1461.024780	699.533508
1460.149048	656.591125
1459.273193	682.165527
1458.397217	662.071045
1457.520996	656.249756
1456.644653	616.197266
1455.768188	613.238159
1454.891479	593.169434
1454.014648	658.646057
1453.137695	564.455872
1452.260620	564.357971
1451.383423	604.157288
1450.505981	555.614319
1449.628418	552.669128
1448.750732	592.449707
1447.872803	612.281677
1446.994873	615.022827
1446.116699	597.835083
1445.238403	680.275208
1444.359863	680.157166
1443.481201	771.090454
1442.602417	853.457520
1441.723511	947.173401
1440.844482	1080.671021
1439.965210	1174.314819
1439.085815	1302.040771
1438.206299	1321.711426
1437.326538	1210.648071
1436.446777	1201.913574
1435.566772	1068.182129
1434.686646	931.656677
1433.806274	800.858398
1432.925781	715.536438
1432.045166	584.821045
1431.164429	593.234802
1430.283569	454.072144
1429.402466	482.367859
1428.521240	419.870819
1427.639893	399.942566
1426.758301	348.825439
1425.876709	337.422882
1424.994873	360.044220
1424.112793	340.140137
1423.230713	314.574951
1422.348389	331.521362
1421.465942	311.632568
1420.583374	339.903717
1419.700562	351.172760
1418.817627	436.058105
1417.934570	427.489136
1417.051392	506.670502
1416.167969	574.504089
1415.284546	625.336548
1414.400757	664.834961
1413.516968	574.204407
1412.633057	444.011871
1411.748901	384.554840
1410.864624	313.809998
1409.980103	234.609894
1409.095459	214.786148
1408.210815	189.317993
1407.325806	177.984451
1406.440796	192.076767
1405.555542	155.329178
1404.670166	194.833603
1403.784668	155.275116
1402.899048	172.184235
1402.013184	160.865463
1401.127197	149.550613
1400.241089	126.954834
1399.354736	157.960724
1398.468262	138.191574
1397.581665	146.626740
1396.694946	140.962692
1395.807983	155.031952
1394.920898	135.277054
1394.033691	138.071274
1393.146362	140.864502
1392.258789	149.290359
1391.371094	146.448044
1390.483276	166.133255
1389.595337	129.505051
1388.707153	174.519882
1387.818848	137.902954
1386.930420	129.437363
1386.041748	137.854889
1385.152954	154.708115
1384.264038	171.555450
1383.375000	154.654190
1382.485718	132.135986
1381.596313	140.545685
1380.706787	140.521179
1379.817139	157.356277
1378.927246	137.662735
1378.037231	165.728271
1377.147095	162.890900
1376.256714	176.902359
1375.366333	151.604141
1374.475586	140.349716
1373.584839	154.357758
1372.693970	176.778946
1371.802856	201.997818
1370.911499	190.742432
1370.020142	218.754608
1369.128540	204.696152
1368.236816	213.071121
1367.344971	243.867798
1366.453003	215.799332
1365.560791	210.157471
1364.668457	170.898239
1363.775879	204.481857
1362.883301	156.835403
1361.990479	182.009308
1361.097534	167.979248
1360.204346	156.753250
1359.311035	145.531174
1358.417603	137.111191
1357.524048	159.468826
1356.630249	170.629807
1355.736450	153.819672
1354.842285	131.422943
1353.948120	150.970184
1353.053711	142.558044
1352.159180	148.122665
1351.264526	153.685333
1350.369751	159.246063
1349.474731	150.838318
1348.579590	159.190399
1347.684204	150.785583
1346.788818	136.800034
1345.893188	128.402069
1344.997314	150.706512
1344.101440	147.889786
1343.205322	147.863937
1342.309082	172.942657
1341.412720	175.701309
1340.516113	144.997940
1339.619385	147.760513
1338.722534	136.584885
1337.825439	153.282745
1336.928223	167.188278
1336.030884	164.373047
1335.133423	158.773300
1334.235718	150.390488
1333.337891	158.717728
1332.439941	130.849609
1331.541870	167.012817
1330.643555	172.549713
1329.745117	133.563492
1328.846436	194.745987
1327.947754	150.206314
1327.048828	161.304459
1326.149780	164.056839
1325.250488	169.588394
1324.351074	172.338348
1323.451538	163.970673
1322.551880	150.048569
1321.651978	200.029724
1320.751953	158.329117
1319.851807	208.291290
1318.951416	199.924622
1318.050903	177.679626
1317.150269	152.666687
1316.249512	208.145355
1315.348511	213.658447
1314.447388	205.298111
1313.546021	255.190765
1312.644653	213.546127
1311.743042	232.918579
1310.841309	235.650116
1309.939331	246.696274
1309.037231	263.281311
1308.135010	241.067978
1307.232666	271.500214
1306.330078	318.541321
1305.427368	274.174438
1304.524536	251.974731
1303.621460	304.531433
1302.718262	345.997742
1301.814941	337.634552
1300.911499	368.012451
1300.007813	431.577972
1299.104004	409.373932
1298.199951	539.283142
1297.295898	677.442017
1296.391602	945.487793
1295.487061	1409.690430
1294.582520	1859.912109
1293.677734	1953.531982
1292.772827	1740.465454
1291.867676	1234.684937
1290.962402	795.362061
1290.057007	530.148254
1289.151489	449.994751
1288.245728	342.267181
1287.339844	311.850006
1286.433838	242.813980
1285.527588	242.771332
1284.621216	223.420731
1283.714722	223.381485
1282.808105	195.769119
1281.901245	184.707428
1280.994263	187.431320
1280.087036	159.839798
1279.179810	151.545578
1278.272217	198.352081
1277.364624	165.264359
1276.456787	167.989227
1275.548828	151.439072
1274.640747	176.189041
1273.732544	156.890778
1272.824097	167.871140
1271.915405	148.581116
1271.006714	156.808044
1270.097778	145.778320
1269.188721	151.252792
1268.279541	159.474899
1267.370117	123.708763
1266.460571	173.161804
1265.550781	142.902054
1264.640991	137.381653
1263.730957	148.346085
1262.820679	159.306656
1261.910400	151.040070
1260.999878	120.810791
1260.089233	148.241699
1259.178345	148.215607
1258.267334	134.468277
1257.356201	150.907211
1256.444824	142.650787
1255.533447	126.168869
1254.621704	101.465790
1253.709961	117.898941
1252.797974	120.619537
1251.885864	104.153076
1250.973633	84.952019
1250.061157	104.116394
1249.148560	104.098053
1248.235840	95.862900
1247.322876	106.799843
1246.409790	114.994957
1245.496582	98.549744
1244.583130	95.795364
1243.669556	106.724602
1242.755859	76.609291
1241.841919	112.158119
1240.927856	112.138351
1240.013672	120.322388
1239.099365	109.364708
1238.184814	98.410889
1237.270142	125.725082
1236.355225	90.178177
1235.440186	95.626663
1234.525024	106.536636
1233.609741	111.980301
1232.694214	92.845337
1231.778564	103.750015
1230.862671	90.082809
1229.946777	103.713425
1229.030640	106.423950
1228.114258	100.948502
1227.197876	111.842117
1226.281128	100.912880
1225.364380	100.895081
1224.447388	100.877274
1223.530273	114.489128
1222.613037	106.292572
1221.695557	106.273811
1220.777954	95.357101
1219.860229	133.476379
1218.942261	103.494019
1218.024170	119.814026
1217.105957	122.515434
1216.187500	111.605469
1215.268921	114.307365
1214.350220	95.239319
1213.431274	95.222496
1212.512207	87.045189
1211.593018	78.870773
1210.673706	62.541634
1209.754150	92.436516
1208.834351	92.420189
1207.914551	89.686096
1206.994507	119.560333
1206.074219	100.521606
1205.153931	92.354881
1204.233398	76.043518
1203.312744	81.460800
1202.391846	70.586884
1201.470825	89.575203
1200.549683	100.415054
1199.628296	97.683861
1198.706787	94.953629
1197.785156	103.074287
1196.863281	92.208054
1195.941284	127.441528
1195.019165	100.308571
1194.096802	100.290825
1193.174438	89.432755
1192.251709	94.836143
1191.328979	89.401115
1190.406006	116.471756
1189.482788	124.575653
1188.559570	111.015175
1187.636108	97.459488
1186.712402	108.269157
1185.788696	102.837494
1184.864746	108.230835
1183.940552	110.916977
1183.016357	105.487717
1182.091919	113.582047
1181.167236	124.377357
1180.242554	110.838455
1179.317505	132.442017
1178.392456	132.418564
1177.467163	113.481522
1176.541748	110.759964
1175.616211	126.946251
1174.690430	137.725784
1173.764526	126.901283
1172.838501	156.573853
1171.912231	167.342392
1170.985840	207.791626
1170.059204	269.811432
1169.132446	294.042358
1168.205566	312.870361
1167.278564	315.511597
1166.351318	204.911377
1165.423828	199.483612
1164.496338	188.667267
1163.568604	150.907059
1162.640747	134.714554
1161.712646	126.609230
1160.784424	137.360123
1159.856079	134.642914
1158.927490	126.541893
1157.998779	131.903259
1157.069946	126.497009
1156.140869	134.547424
1155.211670	86.095078
1154.282349	123.739716
1153.352783	118.338730
1152.423096	129.073883
1151.493164	96.788239
1150.563232	118.275749
1149.632935	107.504326
1148.702637	118.233772
1147.772095	115.526131
1146.841431	115.505630
1145.910522	115.485123
1144.979492	128.890747
1144.048340	131.552612
1143.116943	128.844986
1142.185425	134.189697
1141.253784	142.215820
1140.321899	139.507721
1139.389893	150.212402
1138.457764	147.503830
1137.525391	187.698807
1136.592896	184.984528
1135.660278	235.880386
1134.727417	273.358246
1133.794434	353.694855
1132.861206	425.965851
1131.927856	557.139343
1130.994385	776.642761
1130.060669	1006.778503
1129.126831	1226.124023
1128.192871	1220.552734
1127.258667	1145.402832
1126.324341	955.224609
1125.389893	668.805847
1124.455200	567.046570
1123.520386	435.906372
1122.585327	401.069489
1121.650146	328.818512
1120.714844	277.975952
1119.779297	248.530441
1118.843628	229.782974
1117.907837	197.685059
1116.971802	197.649887
1116.035645	184.262390
1115.099365	184.229599
1114.162842	149.493073
1113.226196	162.811691
1112.289307	130.759888
1111.352417	130.736618
1110.415161	146.719055
1109.477905	170.697250
1108.540405	154.666840
1107.602661	151.973114
1106.664917	135.951736
1105.726807	130.597031
1104.788696	157.221497
1103.850342	141.207718
1102.911865	170.484604
1101.973145	154.474167
1101.034302	154.446655
1100.095337	125.132751
1099.156128	138.420090
1098.216797	143.718323
1097.277344	141.031738
1096.337646	170.272141
1095.397827	140.981491
1094.457764	127.658592
1093.517700	132.954010
1092.577271	159.516373
1091.636841	167.462341
1090.696167	164.774826
1089.755249	164.745453
1088.814209	154.089233
1087.873047	191.249084
1086.931763	204.493805
1085.990234	164.627991
1085.048584	175.217896
1084.106689	212.347458
1083.164673	185.770889
1082.222412	191.044540
1081.280151	214.886780
1080.337524	204.238647
1079.394897	206.854187
1078.452026	198.862762
1077.509033	246.545837
1076.565796	209.394043
1075.622437	190.806076
1074.678955	193.421631
1073.735229	177.492279
1072.791382	182.757935
1071.847290	211.855438
1070.903076	201.226730
1069.958740	230.310532
1069.014160	217.035538
1068.069458	230.228302
1067.124512	306.916260
1066.179565	357.123230
1065.234253	470.789490
1064.288940	663.747498
1063.343384	811.689575
1062.397583	906.709412
1061.451660	1012.267273
1060.505615	940.738281
1059.559448	816.393799
1058.613037	715.867920
1057.666382	549.350281
1056.719727	435.704773
1055.772827	293.058105
1054.825684	269.248505
1053.878418	211.137558
1052.931030	250.681030
1051.983398	160.934830
1051.035645	158.268250
1050.087769	145.053299
1049.139648	137.116776
1048.191406	139.728638
1047.242920	139.703659
1046.294312	142.314117
1045.345581	147.558609
1044.396606	126.456184
1043.447510	126.433563
1042.498291	121.143822
1041.548828	123.755241
1040.599121	110.570000
1039.649414	94.757324
1038.699341	128.952164
1037.749268	113.141861
1036.798950	107.860138
1035.848511	105.210571
1034.897827	94.672562
1033.947021	97.284935
1032.996094	99.896370
1032.044922	128.790680
1031.093506	89.348961
1030.142090	84.078079
1029.190430	97.197868
1028.238525	99.806961
1027.286499	123.423347
1026.334351	89.268982
1025.381958	91.878075
1024.429443	99.735474
1023.476807	131.207367
1022.523926	94.452385
1021.570923	97.058670
1020.617737	97.041275
1019.664368	73.423477
1018.710815	120.602669
1017.757080	110.095741
1016.803223	86.488297
1015.849121	83.852402
1014.894897	60.258110
1013.940491	94.300133
1012.985962	75.950378
1012.031189	94.266319
1011.076294	107.339615
1010.121216	88.997375
1009.165955	83.747208
1008.210510	94.198715
1007.254944	78.484848
1006.299133	94.164925
1005.343201	75.841469
1004.387085	70.598351
1003.430786	81.042824
1002.474365	91.483543
1001.517700	78.400398
1000.560913	78.386322
999.603943	99.271523
998.646790	83.582069
997.689514	78.344124
996.731995	70.497055
995.774353	83.537064
994.816528	91.352257
993.858521	91.335854
992.900330	106.974220
991.942017	75.651108
990.983459	67.812950
990.024780	86.054817
989.065918	78.217606
988.106873	88.630692
987.147705	75.583183
986.188293	91.204697
985.228760	83.372169
984.269043	75.542450
983.309143	78.133324
982.349060	93.743141
981.388794	101.536812
980.428406	88.503365
979.467834	78.077164
978.507019	62.450504
977.546082	91.057281
976.585022	80.636238
975.623718	75.420334
974.662292	80.607239
973.700623	85.792274
972.738831	80.578247
971.776855	88.360252
970.814758	85.745995
969.852417	80.534775
968.889954	70.130577
967.927246	85.699730
966.964417	96.070290
966.001404	88.264915
965.038208	72.675674
964.074890	96.018433
963.111328	101.190407
962.147644	75.230606
961.183777	90.779213
960.219727	72.610298
959.255493	85.561020
958.291077	62.214993
957.326538	80.346565
956.361755	90.697525
955.396851	103.635651
954.431763	80.303169
953.466492	59.569038
952.501038	69.916275
951.535461	85.437836
950.569641	54.359737
949.603699	69.878502
948.637573	77.628784
947.671265	93.137764
946.704773	59.493958
945.738098	82.759285
944.771240	80.158607
943.804260	87.900047
942.837097	93.053864
941.869751	82.699638
940.902222	74.933037
939.934509	95.586983
938.966614	82.654922
937.998535	74.892517
937.030334	90.371216
936.061951	90.354919
935.093323	85.176422
934.124573	59.354675
933.155640	74.825005
932.186584	100.608582
931.217285	92.852707
930.247864	95.414726
929.278198	100.554138
928.308411	110.847374
927.338440	97.940468
926.368286	87.615135
925.397949	92.752220
924.427429	97.887451
923.456787	79.841141
922.485901	95.277061
921.514893	100.409042
920.543701	72.075523
919.572327	100.372787
918.600769	102.927856
917.629028	110.627464
916.657104	100.318420
915.685059	82.297684
914.712769	95.139511
913.740356	102.834946
912.767761	79.682686
911.794983	89.948067
910.822021	82.223373
909.848877	84.777534
908.875549	92.467873
907.902039	107.859688
906.928406	84.731583
905.954590	89.850586
904.980530	97.534431
904.006348	92.384338
903.031982	105.196472
902.057434	97.481544
901.082703	107.723282
900.107849	87.188789
899.132751	99.992584
898.157532	87.157257
897.182068	97.393440
896.206482	107.625908
895.230713	112.730553
894.254761	122.956543
893.278625	81.956200
892.302307	112.669380
891.325806	102.408180
890.349182	117.748093
889.372314	97.252563
888.395325	97.234962
887.418091	110.009125
886.440735	112.547096
885.463196	102.297028
884.485474	120.177246
883.507568	81.807991
882.529480	122.689766
881.551270	109.889679
880.572815	109.869781
879.594238	130.287079
878.615417	76.625572
877.636475	120.024994
876.657349	104.683685
875.677979	107.217522
874.698486	114.855103
873.718811	114.834297
872.739014	94.402199
871.758972	137.751221
870.778748	112.221397
869.798401	102.000961
868.817810	104.532036
867.837097	114.709488
866.856140	94.299591
865.875061	104.475204
864.893799	117.194832
863.912354	104.437325
862.930725	101.871597
861.948914	119.677422
860.966919	114.563980
859.984741	127.270226
859.002441	109.432549
858.019897	104.323730
857.037231	99.216766
856.054321	78.850304
855.071289	76.292900
854.088074	96.620140
853.104614	83.891739
852.121033	124.543915
851.137268	106.732552
850.153320	99.090813
849.169189	114.314804
848.184937	124.453522
847.200439	101.576271
846.215759	96.479935
845.230896	88.846962
844.245911	86.292809
843.260681	93.889832
842.275330	101.484085
841.289795	96.392372
840.304016	109.055763
839.318115	86.214478
838.332031	86.198814
837.345764	96.322350
836.359314	103.907867
835.372681	114.024498
834.385864	86.136185
833.398865	96.252365
832.411743	91.169876
831.424377	93.685341
830.436829	83.542007
829.449158	91.120171
828.461243	111.348854
827.473206	78.436066
826.484924	91.070488
825.496521	116.346680
824.507935	134.027237
823.519104	108.719307
822.530151	111.227425
821.541016	108.679764
820.551697	90.971153
819.562195	101.060677
818.572510	95.990173
817.582642	103.549507
816.592590	95.955254
815.602356	116.135216
814.611938	88.347672
813.621399	85.807838
812.630615	116.071823
811.639648	103.436493
810.648560	100.895279
809.657227	100.876915
808.665771	88.251228
807.674072	103.361191
806.682251	85.698547
805.690186	80.642769
804.697998	88.186966
803.705566	93.209244
802.713013	78.080009
801.720276	88.138794
800.727356	93.158318
799.734253	88.106682
798.740906	108.225632
797.747437	115.755157
796.753784	120.765984
795.759949	98.104485
794.765930	98.086601
793.771729	88.010391
792.777344	80.451981
791.782776	80.437317
790.788025	98.015106
789.793091	85.433487
788.798035	75.368744
787.802734	97.961502
786.807251	87.898140
785.811584	112.991287
784.815796	90.376541
783.819763	80.320053
782.823547	77.795853
781.827148	95.345268
780.830627	87.801987
779.833862	72.736946
778.836975	72.723671
777.839844	70.203148
776.842529	105.285507
775.845093	75.190208
774.847412	77.682365
773.849609	62.635635
772.851563	97.693756
771.853394	82.648857
770.854980	100.162140
769.856445	97.640259
768.857666	85.106735
767.858765	102.609970
766.859680	87.577881
765.860352	127.590172
764.860901	85.044579
763.861206	102.535027
762.861389	105.016693
761.861389	87.497917
760.861145	87.481934
759.860779	92.464005
758.860168	89.948540
757.859436	77.441528
756.858521	84.920349
755.857361	67.424423
754.856079	94.876289
753.854614	89.866371
752.852905	82.362442
751.851074	94.824265
750.848999	92.312004
749.846802	109.756371
748.844421	79.808212
747.841797	102.235573
746.839050	112.189255
745.836121	82.257072
744.832947	94.702942
743.829651	97.177345
742.826111	109.615921
741.822449	114.577492
740.818604	114.556526
739.814514	97.106239
738.810303	87.130676
737.805847	77.158760
736.801270	77.144638
735.796448	89.570923
734.791504	87.066902
733.786316	101.973984
732.781006	101.955315
731.775452	84.532829
730.769775	84.517349
729.763855	104.384666
728.757751	91.941078
727.751526	81.986488
726.745056	99.359352
725.738403	104.308212
724.731628	89.390663
723.724609	96.822144
722.717407	76.947090
721.710083	114.158630
720.702515	111.656456
719.694763	99.231995
718.686829	114.095879
717.678711	86.796165
716.670410	99.177437
715.661987	101.638237
714.653320	106.576660
713.644470	96.644829
712.635437	79.283783
711.626221	99.086555
710.616821	104.021805
709.607178	104.002724
708.597412	94.080444
707.587463	99.013885
706.577332	96.520828
705.567017	98.977562
704.556458	98.959396
703.545776	84.100060
702.534912	84.084625
701.523804	96.432312
700.512573	79.109428
699.501099	84.038338
698.489502	84.022911
697.477661	84.007492
696.465698	76.581001
695.453491	91.386353
694.441101	96.308472
693.428589	81.476822
692.415833	91.336021
691.402893	76.510719
690.389771	81.431938
689.376465	69.081078
688.362976	101.135849
687.349304	69.055695
686.335449	88.769585
685.321411	73.961067
684.307190	64.087814
683.292725	93.649590
682.278137	98.560402
681.263367	101.005844
680.248352	103.450386
679.233215	98.506065
678.217834	98.487953
677.202332	93.546356
676.186584	76.300102
675.170654	83.668594
674.154541	86.113602
673.138306	86.097763
672.121826	95.919868
671.105164	78.689003
670.088318	68.840218
669.071289	115.531960
668.054016	95.849312
667.036621	98.288902
666.019043	61.419262
665.001282	81.058502
663.983276	71.220123
662.965149	76.117844
661.946777	83.468727
660.928223	78.544342
659.909546	76.075821
658.890625	93.237068
657.871521	88.313591
656.852234	90.750038
655.832764	93.185577
654.813110	76.005814
653.793274	88.248566
652.773254	71.076027
651.752991	83.315170
650.732605	97.999794
649.711975	97.981735
648.691223	68.574585
647.670227	110.188843
646.649048	100.375786
645.627747	95.461807
644.606201	107.680656
643.584473	100.320297
642.562561	83.177109
641.540466	78.269913
640.518127	95.373871
639.495667	100.246353
638.473022	117.339951
637.450134	95.321129
636.427063	97.747231
635.403870	100.172440
634.380432	102.596741
633.356812	107.462479
632.333008	80.581993
631.309021	80.567131
630.284851	80.552269
629.260498	104.942680
628.235901	82.962624
627.211182	104.903961
626.186218	90.249542
625.161133	92.671608
624.135803	80.463127
623.110291	80.448273
622.084595	95.057686
621.058716	65.797020
620.032654	97.459068
619.006409	99.877098
617.979919	119.343277
616.953308	82.794327
615.926453	87.648392
614.899414	94.934891
613.872253	102.218689
612.844849	99.766479
611.817261	104.613808
610.789490	104.594482
609.761475	72.959412
608.733337	87.535118
607.705017	99.674355
606.676453	94.794670
605.647705	82.626236
604.618774	102.048836
603.589722	94.742119
602.560425	89.866936
601.530884	80.136772
600.501221	84.977829
599.471375	101.954544
598.441284	118.924973
597.411011	92.210480
596.380615	89.767281
595.349976	80.047905
594.319153	104.285553
593.288147	89.717476
592.256897	94.549576
591.225525	89.684288
590.193970	104.208405
589.162170	111.458130
588.130188	106.592392
587.098022	128.371628
586.065674	104.131287
585.033142	111.375641
584.000427	121.038071
582.967468	113.754723
581.934387	82.275414
580.901062	111.293190
579.867554	111.272583
578.833862	147.529800
577.799988	108.813301
576.765930	108.793152
575.731628	108.773003
574.697205	96.669205
573.662537	111.148987
572.627747	111.128395
571.592712	96.615486
570.557434	118.332039
569.522034	113.481125
568.486450	108.632011
567.450623	125.507057
566.414673	113.418045
565.378479	94.095406
564.342102	101.314728
563.305542	125.414024
562.268799	115.745331
561.231812	101.258385
560.194702	125.344276
559.157349	147.011215
558.119812	134.936081
557.082092	115.638046
556.044189	132.477356
555.006042	108.370453
553.967773	134.835999
552.929260	127.588959
551.890625	110.717041
550.851746	127.541618
549.812683	153.983948
548.773376	110.655418
547.733948	153.926788
546.694275	132.256287
545.654419	112.998024
544.614441	139.418488
543.574158	117.762718
542.533752	132.158096
541.493164	115.316559
540.452332	141.716949
539.411316	124.879883
538.370178	134.461044
537.328735	122.432854
536.287170	132.010910
535.245422	134.386139
534.203430	134.361160
533.161255	131.937347
532.118896	129.514404
531.076355	129.490341
530.033630	129.466278
528.990723	112.662674
527.947571	117.434998
526.904236	141.375046
525.860718	134.161530
524.817017	141.322479
523.773132	136.506500
522.729004	148.453156
521.684692	169.971191
520.640198	150.791458
519.595520	126.832710
518.550659	143.557495
517.505615	131.569901
516.460327	157.854507
515.414856	138.694824
514.369202	131.496475
513.323364	126.691208
512.277283	133.837509
511.231079	179.213303
510.184631	138.565826
509.138000	140.928650
508.091187	124.185188
507.044159	119.386604
505.996948	126.526245
504.949554	145.597427
503.901947	181.366302
502.854126	114.525810
501.806152	135.974075
500.757965	147.874084
499.709564	143.077286
